TITLE	Seo_0.8uM
DATA TYPE	
ORIGIN	JASCO
OWNER	
DATE	24/04/08
TIME	15:35:50
SPECTROMETER/DATA SYSTEM	
LOCALE	1033
RESOLUTION	
DELTAX	-0.1
XUNITS	NANOMETERS
YUNITS	CD [mdeg]
Y2UNITS	HT [V]
FIRSTX	  350.0000
LASTX	  190.0000
NPOINTS	    1601
FIRSTY	    -0.92998
MAXY	     3.81395
MINY	    -2.02777
XYDATA
350.0000	-0.929975	498.401
349.9000	-0.985606	497.812
349.8000	-0.960869	496.943
349.7000	-0.953018	496.057
349.6000	-1.14333	495.399
349.5000	-1.25551	494.818
349.4000	-1.18459	493.925
349.3000	-0.90717	493.293
349.2000	-0.545846	492.763
349.1000	-0.494278	491.926
349.0000	-0.604068	491.298
348.9000	-0.841261	490.748
348.8000	-1.165	489.894
348.7000	-1.23309	489.047
348.6000	-1.46696	488.445
348.5000	-1.86441	487.921
348.4000	-1.95413	487.064
348.3000	-1.79484	486.424
348.2000	-1.71021	485.857
348.1000	-1.74719	484.981
348.0000	-1.4159	484.331
347.9000	-1.29032	483.753
347.8000	-1.12773	482.88
347.7000	-1.10166	481.993
347.6000	-1.27713	481.352
347.5000	-1.51429	480.822
347.4000	-1.5585	480.01
347.3000	-1.08939	479.424
347.2000	-1.0393	478.922
347.1000	-1.23707	478.171
347.0000	-1.38996	477.628
346.9000	-1.35975	477.173
346.8000	-1.14228	476.447
346.7000	-1.0157	475.705
346.6000	-0.76065	475.163
346.5000	-1.08704	474.413
346.4000	-1.38212	473.642
346.3000	-1.20728	473.047
346.2000	-0.934164	472.267
346.1000	-0.702062	471.469
346.0000	-0.589456	470.871
345.9000	-0.452769	470.352
345.8000	-0.310044	469.553
345.7000	-0.0644206	468.969
345.6000	0.101951	468.476
345.5000	0.265656	467.777
345.4000	0.152562	467.27
345.3000	0.0781474	466.844
345.2000	-0.129153	466.144
345.1000	-0.151215	465.445
345.0000	-0.309563	464.935
344.9000	-0.520422	464.275
344.8000	-0.774585	463.595
344.7000	-0.745969	463.068
344.6000	-0.648195	462.382
344.5000	-0.735126	461.675
344.4000	-0.706988	461.155
344.3000	-0.810374	460.459
344.2000	-0.958732	459.747
344.1000	-1.16345	459.203
344.0000	-1.1932	458.535
343.9000	-1.33739	457.863
343.8000	-1.42153	457.372
343.7000	-1.4383	456.956
343.6000	-1.43687	456.308
343.5000	-1.39485	455.852
343.4000	-1.28664	455.482
343.3000	-0.97898	454.884
343.2000	-0.687905	454.443
343.1000	-0.514493	454.052
343.0000	-0.548821	453.456
342.9000	-0.549931	452.842
342.8000	-0.512786	452.389
342.7000	-0.541526	451.778
342.6000	-0.507019	451.152
342.5000	-0.719603	450.68
342.4000	-0.829153	450.076
342.3000	-0.898605	449.463
342.2000	-0.838882	448.992
342.1000	-0.793622	448.403
342.0000	-0.692732	447.82
341.9000	-0.491759	447.415
341.8000	-0.342773	446.879
341.7000	-0.270693	446.339
341.6000	-0.306227	445.948
341.5000	-0.406587	445.451
341.4000	-0.576235	444.946
341.3000	-0.770662	444.569
341.2000	-0.87126	444.019
341.1000	-1.00187	443.451
341.0000	-1.10811	443.022
340.9000	-1.08565	442.458
340.8000	-0.741486	441.886
340.7000	-0.522746	441.437
340.6000	-0.332261	440.875
340.5000	-0.0232554	440.307
340.4000	0.114772	439.891
340.3000	-0.000928752	439.351
340.2000	-0.0498108	438.821
340.1000	-0.241488	438.433
340.0000	-0.551056	437.953
339.9000	-0.915545	437.472
339.8000	-1.08602	437.112
339.7000	-1.26597	436.661
339.6000	-1.40287	436.211
339.5000	-1.38047	435.903
339.4000	-1.30121	435.455
339.3000	-1.27143	434.979
339.2000	-1.15393	434.444
339.1000	-0.986924	433.956
339.0000	-0.908422	433.451
338.9000	-0.69196	432.887
338.8000	-0.613095	432.363
338.7000	-0.773019	431.823
338.6000	-0.812452	431.247
338.5000	-0.812853	430.746
338.4000	-0.813687	430.385
338.3000	-0.914074	429.943
338.2000	-0.838823	429.504
338.1000	-0.94919	429.189
338.0000	-0.999754	428.761
337.9000	-0.764985	428.338
337.8000	-0.612778	428.041
337.7000	-0.689807	427.647
337.6000	-0.759667	427.233
337.5000	-0.766207	426.917
337.4000	-0.6892	426.496
337.3000	-0.652855	426.054
337.2000	-0.560527	425.576
337.1000	-0.618324	425.146
337.0000	-0.743406	424.708
336.9000	-0.71767	424.228
336.8000	-0.504287	423.812
336.7000	-0.315071	423.397
336.6000	-0.16216	422.958
336.5000	-0.0603139	422.574
336.4000	-0.0896963	422.306
336.3000	-0.19373	421.914
336.2000	-0.14518	421.517
336.1000	-0.178	421.231
336.0000	-0.371973	420.857
335.9000	-0.552602	420.456
335.8000	-0.762425	420
335.7000	-0.95625	419.582
335.6000	-1.11831	419.153
335.5000	-1.01393	418.723
335.4000	-0.791227	418.357
335.3000	-0.698744	417.989
335.2000	-0.455899	417.6
335.1000	-0.307078	417.258
335.0000	-0.256125	417.033
334.9000	-0.134569	416.72
334.8000	-0.0542419	416.392
334.7000	0.00766907	416.018
334.6000	-0.193324	415.678
334.5000	-0.256725	415.331
334.4000	-0.227488	414.935
334.3000	-0.134801	414.571
334.2000	-0.0239532	414.196
334.1000	-0.113897	413.769
334.0000	-0.19282	413.388
333.9000	-0.255849	413.114
333.8000	-0.319771	412.769
333.7000	-0.420517	412.413
333.6000	-0.47737	412.026
333.5000	-0.59788	411.695
333.4000	-0.802073	411.361
333.3000	-0.799329	411.02
333.2000	-0.799269	410.729
333.1000	-0.769586	410.431
333.0000	-0.764726	410.117
332.9000	-0.657142	409.841
332.8000	-0.644037	409.499
332.7000	-0.595165	409.191
332.6000	-0.421067	408.874
332.5000	-0.262847	408.527
332.4000	-0.0896922	408.225
332.3000	-0.0450267	407.916
332.2000	-0.0890818	407.552
332.1000	-0.086731	407.215
332.0000	-0.140157	406.876
331.9000	-0.199533	406.593
331.8000	-0.372271	406.306
331.7000	-0.581977	405.981
331.6000	-0.754137	405.681
331.5000	-0.834065	405.264
331.4000	-0.817191	404.933
331.3000	-0.8604	404.638
331.2000	-0.871761	404.304
331.1000	-0.849995	404.006
331.0000	-0.757574	403.704
330.9000	-0.716669	403.397
330.8000	-0.704377	403.125
330.7000	-0.659945	402.802
330.6000	-0.692766	402.515
330.5000	-0.657714	402.232
330.4000	-0.690825	401.958
330.3000	-0.68432	401.731
330.2000	-0.669912	401.358
330.1000	-0.635115	401.049
330.0000	-0.640633	400.763
329.9000	-0.669167	400.479
329.8000	-0.654742	400.238
329.7000	-0.692853	399.871
329.6000	-0.730544	399.553
329.5000	-0.790414	399.249
329.4000	-0.887716	398.952
329.3000	-0.970036	398.703
329.2000	-0.859109	398.333
329.1000	-0.855418	398.028
329.0000	-0.912545	397.758
328.9000	-0.910741	397.507
328.8000	-0.800987	397.306
328.7000	-0.714074	396.969
328.6000	-0.600353	396.698
328.5000	-0.449989	396.455
328.4000	-0.642997	396.219
328.3000	-0.773053	396.025
328.2000	-0.727046	395.697
328.1000	-0.656536	395.407
328.0000	-0.689687	395.128
327.9000	-0.785212	394.88
327.8000	-0.722664	394.688
327.7000	-0.64137	394.396
327.6000	-0.643691	394.154
327.5000	-0.540175	393.938
327.4000	-0.531801	393.684
327.3000	-0.463403	393.483
327.2000	-0.38805	393.189
327.1000	-0.292397	392.942
327.0000	-0.290526	392.706
326.9000	-0.45787	392.444
326.8000	-0.526746	392.212
326.7000	-0.481921	391.891
326.6000	-0.4622	391.653
326.5000	-0.441501	391.454
326.4000	-0.52391	391.211
326.3000	-0.611807	390.995
326.2000	-0.639553	390.704
326.1000	-0.616209	390.474
326.0000	-0.671232	390.183
325.9000	-0.720496	389.961
325.8000	-0.681243	389.781
325.7000	-0.660493	389.556
325.6000	-0.609707	389.406
325.5000	-0.567552	389.104
325.4000	-0.475231	388.848
325.3000	-0.401426	388.614
325.2000	-0.335212	388.388
325.1000	-0.303758	388.176
325.0000	-0.382544	387.846
324.9000	-0.504563	387.542
324.8000	-0.507153	387.203
324.7000	-0.652	386.989
324.6000	-0.79863	386.844
324.5000	-0.971382	386.564
324.4000	-1.02424	386.324
324.3000	-0.954792	386.101
324.2000	-0.899593	385.953
324.1000	-0.84398	385.698
324.0000	-0.79718	385.474
323.9000	-0.722547	385.264
323.8000	-0.573415	385.057
323.7000	-0.3689	384.942
323.6000	-0.335556	384.663
323.5000	-0.290888	384.379
323.4000	-0.278482	384.093
323.3000	-0.342582	383.909
323.2000	-0.514231	383.77
323.1000	-0.607575	383.468
323.0000	-0.664964	383.16
322.9000	-0.748607	382.849
322.8000	-0.837072	382.681
322.7000	-0.944715	382.422
322.6000	-1.03828	382.151
322.5000	-1.0744	381.875
322.4000	-1.04604	381.596
322.3000	-1.07855	381.417
322.2000	-1.13454	381.139
322.1000	-1.09174	380.85
322.0000	-0.932767	380.557
321.9000	-0.795929	380.377
321.8000	-0.758257	380.067
321.7000	-0.6885	379.755
321.6000	-0.682235	379.443
321.5000	-0.661861	379.155
321.4000	-0.531614	378.998
321.3000	-0.482135	378.76
321.2000	-0.552612	378.528
321.1000	-0.584382	378.305
321.0000	-0.592212	378.233
320.9000	-0.572427	378.095
320.8000	-0.567751	377.955
320.7000	-0.429572	377.826
320.6000	-0.49942	377.684
320.5000	-0.622233	377.638
320.4000	-0.648578	377.499
320.3000	-0.655892	377.347
320.2000	-0.751452	377.186
320.1000	-0.756329	377.131
320.0000	-0.71414	376.954
319.9000	-0.797751	376.756
319.8000	-0.776263	376.572
319.7000	-0.691203	376.385
319.6000	-0.644373	376.141
319.5000	-0.752072	375.934
319.4000	-0.778412	375.723
319.3000	-0.867002	375.499
319.2000	-0.820629	375.395
319.1000	-0.758868	375.198
319.0000	-0.708788	374.974
318.9000	-0.634901	374.753
318.8000	-0.603895	374.642
318.7000	-0.505908	374.441
318.6000	-0.476662	374.229
318.5000	-0.475245	374.044
318.4000	-0.596747	373.853
318.3000	-0.68841	373.61
318.2000	-0.689641	373.425
318.1000	-0.756118	373.229
318.0000	-0.880396	373.036
317.9000	-0.952486	372.953
317.8000	-0.925981	372.793
317.7000	-0.777804	372.61
317.6000	-0.559332	372.417
317.5000	-0.571305	372.328
317.4000	-0.687007	372.152
317.3000	-0.754381	371.966
317.2000	-0.813334	371.783
317.1000	-0.808733	371.593
317.0000	-0.87542	371.358
316.9000	-0.907557	371.175
316.8000	-1.00869	371.007
316.7000	-1.01935	370.836
316.6000	-0.845705	370.655
316.5000	-0.736651	370.518
316.4000	-0.641702	370.364
316.3000	-0.534223	370.194
316.2000	-0.430818	370.002
316.1000	-0.4341	369.849
316.0000	-0.404459	369.686
315.9000	-0.434773	369.488
315.8000	-0.410159	369.374
315.7000	-0.404761	369.19
315.6000	-0.368144	369.013
315.5000	-0.462603	368.835
315.4000	-0.620344	368.737
315.3000	-0.669084	368.554
315.2000	-0.711732	368.364
315.1000	-0.648779	368.197
315.0000	-0.653925	368.031
314.9000	-0.71311	367.837
314.8000	-0.718851	367.68
314.7000	-0.628754	367.511
314.6000	-0.522679	367.336
314.5000	-0.445627	367.162
314.4000	-0.427056	367.033
314.3000	-0.501162	366.881
314.2000	-0.491723	366.727
314.1000	-0.489159	366.538
314.0000	-0.54638	366.383
313.9000	-0.676713	366.232
313.8000	-0.832464	366.081
313.7000	-0.984558	365.855
313.6000	-1.10192	365.657
313.5000	-1.20086	365.47
313.4000	-1.2815	365.283
313.3000	-1.32278	365.096
313.2000	-1.34939	364.942
313.1000	-1.39536	364.778
313.0000	-1.29939	364.616
312.9000	-1.17478	364.468
312.8000	-1.11429	364.365
312.7000	-1.0758	364.235
312.6000	-1.04931	364.103
312.5000	-0.977941	363.925
312.4000	-0.959507	363.77
312.3000	-0.936991	363.607
312.2000	-0.967711	363.44
312.1000	-1.02125	363.21
312.0000	-0.930761	363.008
311.9000	-0.874416	362.808
311.8000	-0.828565	362.55
311.7000	-0.756211	362.358
311.6000	-0.658805	362.177
311.5000	-0.620841	362.015
311.4000	-0.598424	361.792
311.3000	-0.554128	361.653
311.2000	-0.532196	361.534
311.1000	-0.512757	361.432
311.0000	-0.534394	361.311
310.9000	-0.614562	361.212
310.8000	-0.732815	361.115
310.7000	-0.820248	361.026
310.6000	-0.859723	360.894
310.5000	-0.88722	360.785
310.4000	-0.98894	360.679
310.3000	-1.03665	360.582
310.2000	-0.989028	360.488
310.1000	-1.02923	360.415
310.0000	-1.10098	360.334
309.9000	-1.0808	360.26
309.8000	-0.999891	360.189
309.7000	-0.980656	360.119
309.6000	-0.942729	360.061
309.5000	-0.92483	359.931
309.4000	-1.01415	359.83
309.3000	-1.00464	359.716
309.2000	-0.960491	359.618
309.1000	-0.907863	359.431
309.0000	-0.866782	359.279
308.9000	-0.827745	359.146
308.8000	-0.820947	359.014
308.7000	-0.763529	358.898
308.6000	-0.692781	358.806
308.5000	-0.636308	358.704
308.4000	-0.635783	358.564
308.3000	-0.648483	358.485
308.2000	-0.770609	358.395
308.1000	-0.839235	358.325
308.0000	-0.855916	358.21
307.9000	-0.942066	358.115
307.8000	-1.03688	357.988
307.7000	-1.05328	357.884
307.6000	-1.11483	357.745
307.5000	-1.15492	357.584
307.4000	-1.04958	357.456
307.3000	-0.948667	357.316
307.2000	-0.947836	357.208
307.1000	-0.872741	357.089
307.0000	-0.902321	356.998
306.9000	-0.980478	356.879
306.8000	-0.963908	356.815
306.7000	-0.897906	356.763
306.6000	-0.934589	356.665
306.5000	-1.00723	356.58
306.4000	-1.062	356.47
306.3000	-1.16127	356.384
306.2000	-1.13624	356.245
306.1000	-1.04135	356.134
306.0000	-0.972422	355.999
305.9000	-0.993035	355.89
305.8000	-1.00888	355.803
305.7000	-0.982315	355.703
305.6000	-0.914077	355.632
305.5000	-0.872153	355.53
305.4000	-0.817641	355.473
305.3000	-0.865735	355.394
305.2000	-0.901316	355.34
305.1000	-0.876782	355.252
305.0000	-0.901864	355.133
304.9000	-0.903279	355.053
304.8000	-0.932217	354.925
304.7000	-0.921974	354.823
304.6000	-0.950905	354.696
304.5000	-0.987205	354.575
304.4000	-1.02771	354.467
304.3000	-1.02109	354.357
304.2000	-1.03527	354.298
304.1000	-1.04371	354.217
304.0000	-1.08341	354.173
303.9000	-1.11276	354.106
303.8000	-1.13084	354.025
303.7000	-1.16864	353.967
303.6000	-1.13183	353.872
303.5000	-1.13353	353.801
303.4000	-1.14502	353.688
303.3000	-1.24491	353.564
303.2000	-1.2974	353.452
303.1000	-1.27766	353.352
303.0000	-1.35133	353.29
302.9000	-1.34148	353.206
302.8000	-1.35189	353.125
302.7000	-1.31123	353.059
302.6000	-1.30541	352.982
302.5000	-1.1969	352.948
302.4000	-1.12865	352.888
302.3000	-1.13457	352.79
302.2000	-1.03114	352.703
302.1000	-0.950673	352.605
302.0000	-0.883431	352.54
301.9000	-0.87931	352.452
301.8000	-0.834033	352.373
301.7000	-0.851597	352.304
301.6000	-0.824505	352.221
301.5000	-0.77834	352.184
301.4000	-0.80713	352.129
301.3000	-0.887092	352.054
301.2000	-0.98502	351.99
301.1000	-1.05762	351.923
301.0000	-1.11918	351.884
300.9000	-1.12757	351.807
300.8000	-1.16968	351.719
300.7000	-1.24068	351.642
300.6000	-1.2603	351.557
300.5000	-1.23831	351.49
300.4000	-1.1771	351.44
300.3000	-1.21823	351.362
300.2000	-1.23695	351.289
300.1000	-1.24454	351.229
300.0000	-1.23852	351.165
299.9000	-1.2578	351.114
299.8000	-1.28274	351.059
299.7000	-1.37443	350.988
299.6000	-1.38607	350.924
299.5000	-1.32387	350.866
299.4000	-1.23493	350.823
299.3000	-1.17519	350.759
299.2000	-1.15489	350.704
299.1000	-1.14939	350.662
299.0000	-1.05027	350.595
298.9000	-0.951976	350.548
298.8000	-0.90022	350.512
298.7000	-0.93645	350.45
298.6000	-0.960781	350.396
298.5000	-1.04443	350.335
298.4000	-1.11973	350.271
298.3000	-1.09163	350.217
298.2000	-1.08208	350.158
298.1000	-1.10241	350.098
298.0000	-1.07477	350.042
297.9000	-1.02804	349.991
297.8000	-1.02687	349.922
297.7000	-0.998504	349.87
297.6000	-0.879185	349.834
297.5000	-0.84543	349.767
297.4000	-0.896064	349.719
297.3000	-0.91795	349.674
297.2000	-0.981844	349.603
297.1000	-1.00103	349.555
297.0000	-0.996818	349.503
296.9000	-0.90916	349.44
296.8000	-0.846981	349.389
296.7000	-0.842985	349.346
296.6000	-0.809182	349.313
296.5000	-0.836457	349.265
296.4000	-0.875021	349.229
296.3000	-0.968141	349.197
296.2000	-1.0623	349.153
296.1000	-1.10322	349.11
296.0000	-1.22981	349.071
295.9000	-1.29825	349.024
295.8000	-1.3844	348.951
295.7000	-1.37984	348.905
295.6000	-1.34538	348.858
295.5000	-1.32054	348.792
295.4000	-1.30569	348.718
295.3000	-1.32752	348.674
295.2000	-1.36079	348.614
295.1000	-1.35765	348.545
295.0000	-1.33696	348.512
294.9000	-1.34021	348.462
294.8000	-1.31023	348.397
294.7000	-1.29563	348.36
294.6000	-1.25386	348.32
294.5000	-1.31338	348.269
294.4000	-1.35372	348.233
294.3000	-1.35985	348.202
294.2000	-1.37595	348.146
294.1000	-1.35374	348.107
294.0000	-1.38039	348.079
293.9000	-1.38757	348.026
293.8000	-1.35951	347.994
293.7000	-1.26342	347.97
293.6000	-1.2382	347.911
293.5000	-1.21244	347.841
293.4000	-1.22667	347.802
293.3000	-1.20176	347.756
293.2000	-1.17122	347.7
293.1000	-1.16978	347.674
293.0000	-1.14468	347.627
292.9000	-1.13478	347.575
292.8000	-1.03988	347.556
292.7000	-1.02204	347.531
292.6000	-0.973697	347.492
292.5000	-1.02459	347.432
292.4000	-1.01623	347.394
292.3000	-0.993723	347.336
292.2000	-0.980852	347.281
292.1000	-0.943561	347.253
292.0000	-0.96745	347.203
291.9000	-1.00425	347.147
291.8000	-1.07419	347.097
291.7000	-1.13277	347.072
291.6000	-1.15847	347.024
291.5000	-1.25142	346.97
291.4000	-1.31253	346.939
291.3000	-1.42777	346.877
291.2000	-1.462	346.796
291.1000	-1.48235	346.722
291.0000	-1.44136	346.667
290.9000	-1.38548	346.588
290.8000	-1.33106	346.491
290.7000	-1.26914	346.386
290.6000	-1.22348	346.268
290.5000	-1.17529	346.128
290.4000	-1.11623	345.986
290.3000	-1.0309	345.86
290.2000	-0.971632	345.709
290.1000	-0.999192	345.545
290.0000	-1.04022	345.4
289.9000	-1.06429	345.303
289.8000	-1.12029	345.216
289.7000	-1.12959	345.158
289.6000	-1.17835	345.137
289.5000	-1.22123	345.158
289.4000	-1.25616	345.207
289.3000	-1.24647	345.286
289.2000	-1.23216	345.388
289.1000	-1.17704	345.51
289.0000	-1.13089	345.62
288.9000	-1.14156	345.729
288.8000	-1.06282	345.827
288.7000	-1.03066	345.913
288.6000	-1.05737	345.976
288.5000	-1.04368	346.02
288.4000	-1.02999	346.048
288.3000	-1.06102	346.063
288.2000	-1.05097	346.059
288.1000	-1.03162	346.049
288.0000	-1.06467	346.026
287.9000	-1.11359	345.987
287.8000	-1.0404	345.964
287.7000	-1.02586	345.933
287.6000	-0.97969	345.911
287.5000	-0.93024	345.868
287.4000	-0.911962	345.841
287.3000	-0.898433	345.82
287.2000	-0.849662	345.797
287.1000	-0.80906	345.781
287.0000	-0.882347	345.734
286.9000	-0.895177	345.709
286.8000	-0.839802	345.696
286.7000	-0.868096	345.675
286.6000	-0.93692	345.65
286.5000	-1.01805	345.639
286.4000	-1.12192	345.626
286.3000	-1.23655	345.62
286.2000	-1.36051	345.614
286.1000	-1.38371	345.609
286.0000	-1.47062	345.609
285.9000	-1.52639	345.606
285.8000	-1.50923	345.612
285.7000	-1.52255	345.587
285.6000	-1.51717	345.57
285.5000	-1.50772	345.573
285.4000	-1.4295	345.574
285.3000	-1.38492	345.578
285.2000	-1.3202	345.552
285.1000	-1.20061	345.538
285.0000	-1.21942	345.539
284.9000	-1.16267	345.536
284.8000	-1.09132	345.54
284.7000	-1.06138	345.512
284.6000	-1.00861	345.492
284.5000	-0.955887	345.497
284.4000	-1.00056	345.5
284.3000	-1.06886	345.506
284.2000	-1.07873	345.486
284.1000	-1.04655	345.476
284.0000	-1.00863	345.456
283.9000	-1.00715	345.458
283.8000	-1.00384	345.474
283.7000	-1.05119	345.462
283.6000	-1.12641	345.449
283.5000	-1.16461	345.439
283.4000	-1.17444	345.437
283.3000	-1.17268	345.452
283.2000	-1.14905	345.472
283.1000	-1.07337	345.486
283.0000	-1.06058	345.48
282.9000	-1.05636	345.48
282.8000	-0.966189	345.481
282.7000	-0.872037	345.498
282.6000	-0.894238	345.508
282.5000	-0.892525	345.508
282.4000	-0.871758	345.505
282.3000	-0.917318	345.5
282.2000	-0.907096	345.498
282.1000	-0.912732	345.512
282.0000	-0.941804	345.523
281.9000	-0.990258	345.526
281.8000	-0.949921	345.525
281.7000	-0.952525	345.523
281.6000	-1.01709	345.522
281.5000	-1.08103	345.518
281.4000	-1.11482	345.538
281.3000	-1.11279	345.549
281.2000	-1.12625	345.555
281.1000	-1.16488	345.559
281.0000	-1.18002	345.558
280.9000	-1.18251	345.556
280.8000	-1.17056	345.55
280.7000	-1.14872	345.546
280.6000	-1.10451	345.549
280.5000	-1.14737	345.534
280.4000	-1.17462	345.521
280.3000	-1.12649	345.505
280.2000	-1.02485	345.495
280.1000	-0.919133	345.49
280.0000	-0.790033	345.486
279.9000	-0.733084	345.479
279.8000	-0.698025	345.459
279.7000	-0.650144	345.454
279.6000	-0.531647	345.45
279.5000	-0.510705	345.443
279.4000	-0.508345	345.438
279.3000	-0.582958	345.429
279.2000	-0.664072	345.421
279.1000	-0.725582	345.417
279.0000	-0.730907	345.418
278.9000	-0.773318	345.411
278.8000	-0.833757	345.422
278.7000	-0.836981	345.439
278.6000	-0.83006	345.461
278.5000	-0.851424	345.48
278.4000	-0.85305	345.499
278.3000	-0.904758	345.52
278.2000	-0.953399	345.537
278.1000	-0.906503	345.552
278.0000	-0.841669	345.554
277.9000	-0.772734	345.547
277.8000	-0.749084	345.537
277.7000	-0.860564	345.525
277.6000	-0.92946	345.535
277.5000	-0.916025	345.545
277.4000	-0.869309	345.56
277.3000	-0.885828	345.579
277.2000	-0.842067	345.6
277.1000	-0.821537	345.621
277.0000	-0.886161	345.641
276.9000	-0.878802	345.664
276.8000	-0.817735	345.676
276.7000	-0.807315	345.679
276.6000	-0.851528	345.684
276.5000	-0.938428	345.684
276.4000	-1.05221	345.68
276.3000	-1.10036	345.679
276.2000	-1.11496	345.678
276.1000	-1.1043	345.682
276.0000	-1.09296	345.701
275.9000	-1.12496	345.723
275.8000	-1.10935	345.749
275.7000	-1.14035	345.778
275.6000	-1.15339	345.813
275.5000	-1.23026	345.844
275.4000	-1.36202	345.877
275.3000	-1.43116	345.914
275.2000	-1.45296	345.932
275.1000	-1.4142	345.95
275.0000	-1.40075	345.96
274.9000	-1.38747	345.965
274.8000	-1.35521	345.965
274.7000	-1.23648	345.971
274.6000	-1.09047	345.979
274.5000	-1.02558	345.985
274.4000	-0.981844	345.993
274.3000	-0.97728	346.001
274.2000	-1.00932	346.01
274.1000	-1.07459	346.027
274.0000	-1.06991	346.045
273.9000	-1.04153	346.064
273.8000	-1.03079	346.081
273.7000	-1.02292	346.097
273.6000	-1.00733	346.109
273.5000	-1.09295	346.123
273.4000	-1.09692	346.144
273.3000	-1.05388	346.162
273.2000	-1.03423	346.173
273.1000	-1.05778	346.188
273.0000	-1.11458	346.205
272.9000	-1.19953	346.225
272.8000	-1.16612	346.255
272.7000	-1.11682	346.289
272.6000	-1.04758	346.316
272.5000	-0.979261	346.341
272.4000	-0.944825	346.364
272.3000	-0.94127	346.384
272.2000	-0.955828	346.404
272.1000	-0.918659	346.42
272.0000	-0.855586	346.433
271.9000	-0.82538	346.444
271.8000	-0.906757	346.451
271.7000	-0.945422	346.46
271.6000	-0.990869	346.466
271.5000	-0.996429	346.474
271.4000	-0.941581	346.488
271.3000	-0.868098	346.503
271.2000	-0.854078	346.524
271.1000	-0.83633	346.547
271.0000	-0.781624	346.564
270.9000	-0.722858	346.559
270.8000	-0.633849	346.557
270.7000	-0.604194	346.562
270.6000	-0.583097	346.564
270.5000	-0.672971	346.56
270.4000	-0.67582	346.553
270.3000	-0.785566	346.533
270.2000	-0.832335	346.516
270.1000	-0.821063	346.515
270.0000	-0.897864	346.526
269.9000	-0.950596	346.538
269.8000	-0.917589	346.557
269.7000	-0.913276	346.573
269.6000	-0.894904	346.594
269.5000	-0.81957	346.62
269.4000	-0.732222	346.637
269.3000	-0.686285	346.658
269.2000	-0.644284	346.679
269.1000	-0.573886	346.702
269.0000	-0.603395	346.717
268.9000	-0.697078	346.738
268.8000	-0.763669	346.758
268.7000	-0.780209	346.789
268.6000	-0.874722	346.828
268.5000	-0.951396	346.877
268.4000	-0.977813	346.935
268.3000	-1.01661	346.984
268.2000	-1.01798	347.039
268.1000	-0.962843	347.089
268.0000	-0.864963	347.144
267.9000	-0.863145	347.19
267.8000	-0.796158	347.244
267.7000	-0.737551	347.302
267.6000	-0.769557	347.36
267.5000	-0.862171	347.41
267.4000	-0.922135	347.454
267.3000	-0.948102	347.508
267.2000	-0.950483	347.553
267.1000	-0.892417	347.609
267.0000	-0.94752	347.662
266.9000	-0.968743	347.719
266.8000	-0.944858	347.761
266.7000	-0.866952	347.804
266.6000	-0.836308	347.856
266.5000	-0.834301	347.903
266.4000	-0.901224	347.96
266.3000	-0.933435	348.013
266.2000	-0.920024	348.073
266.1000	-0.840669	348.126
266.0000	-0.769218	348.164
265.9000	-0.756203	348.208
265.8000	-0.777622	348.257
265.7000	-0.768019	348.327
265.6000	-0.726922	348.396
265.5000	-0.683249	348.465
265.4000	-0.637517	348.512
265.3000	-0.633166	348.548
265.2000	-0.619799	348.608
265.1000	-0.680096	348.676
265.0000	-0.704389	348.751
264.9000	-0.678443	348.821
264.8000	-0.636985	348.874
264.7000	-0.584431	348.931
264.6000	-0.575766	348.998
264.5000	-0.644852	349.081
264.4000	-0.705233	349.165
264.3000	-0.683336	349.233
264.2000	-0.613556	349.309
264.1000	-0.54912	349.386
264.0000	-0.470655	349.469
263.9000	-0.467616	349.542
263.8000	-0.533628	349.599
263.7000	-0.46663	349.663
263.6000	-0.378113	349.731
263.5000	-0.357005	349.809
263.4000	-0.320377	349.891
263.3000	-0.314399	349.954
263.2000	-0.423177	350.005
263.1000	-0.410058	350.073
263.0000	-0.394824	350.162
262.9000	-0.367551	350.25
262.8000	-0.412883	350.333
262.7000	-0.434312	350.411
262.6000	-0.42363	350.494
262.5000	-0.503809	350.584
262.4000	-0.467258	350.679
262.3000	-0.540582	350.779
262.2000	-0.611591	350.872
262.1000	-0.656694	350.971
262.0000	-0.663405	351.048
261.9000	-0.727265	351.119
261.8000	-0.788633	351.191
261.7000	-0.813726	351.248
261.6000	-0.804907	351.318
261.5000	-0.679434	351.397
261.4000	-0.622699	351.475
261.3000	-0.582411	351.539
261.2000	-0.566699	351.615
261.1000	-0.527664	351.701
261.0000	-0.48941	351.793
260.9000	-0.464318	351.877
260.8000	-0.441849	351.961
260.7000	-0.449692	352.038
260.6000	-0.461073	352.098
260.5000	-0.48226	352.168
260.4000	-0.558879	352.251
260.3000	-0.665654	352.333
260.2000	-0.700411	352.402
260.1000	-0.67772	352.483
260.0000	-0.645182	352.58
259.9000	-0.612847	352.667
259.8000	-0.599966	352.772
259.7000	-0.637291	352.873
259.6000	-0.637514	352.961
259.5000	-0.658584	353.051
259.4000	-0.743293	353.153
259.3000	-0.790252	353.248
259.2000	-0.807766	353.343
259.1000	-0.868621	353.441
259.0000	-0.899687	353.523
258.9000	-0.862731	353.601
258.8000	-0.822765	353.687
258.7000	-0.824396	353.764
258.6000	-0.760749	353.849
258.5000	-0.755501	353.944
258.4000	-0.841209	354.028
258.3000	-0.937138	354.11
258.2000	-1.06014	354.202
258.1000	-1.11236	354.297
258.0000	-1.14194	354.403
257.9000	-1.09282	354.515
257.8000	-1.10023	354.603
257.7000	-1.1867	354.689
257.6000	-1.29518	354.789
257.5000	-1.31605	354.888
257.4000	-1.2732	354.993
257.3000	-1.28225	355.093
257.2000	-1.26314	355.196
257.1000	-1.26299	355.296
257.0000	-1.20219	355.404
256.9000	-1.16871	355.508
256.8000	-1.08795	355.59
256.7000	-0.915551	355.68
256.6000	-0.929639	355.763
256.5000	-0.900131	355.844
256.4000	-0.905324	355.92
256.3000	-0.99349	355.98
256.2000	-1.07569	356.046
256.1000	-1.14097	356.121
256.0000	-1.20366	356.193
255.9000	-1.2708	356.273
255.8000	-1.27025	356.347
255.7000	-1.16732	356.432
255.6000	-1.15176	356.514
255.5000	-1.04972	356.6
255.4000	-0.978962	356.695
255.3000	-0.840345	356.789
255.2000	-0.666175	356.893
255.1000	-0.556009	356.985
255.0000	-0.553722	357.085
254.9000	-0.575655	357.179
254.8000	-0.505951	357.283
254.7000	-0.54915	357.4
254.6000	-0.552169	357.507
254.5000	-0.551818	357.618
254.4000	-0.543104	357.72
254.3000	-0.524623	357.835
254.2000	-0.441343	357.942
254.1000	-0.401598	358.044
254.0000	-0.489726	358.131
253.9000	-0.501108	358.223
253.8000	-0.427933	358.312
253.7000	-0.436509	358.402
253.6000	-0.536853	358.482
253.5000	-0.601212	358.564
253.4000	-0.595099	358.63
253.3000	-0.527925	358.715
253.2000	-0.443302	358.809
253.1000	-0.468702	358.902
253.0000	-0.510521	358.992
252.9000	-0.552923	359.087
252.8000	-0.517515	359.181
252.7000	-0.466803	359.272
252.6000	-0.454719	359.363
252.5000	-0.430207	359.459
252.4000	-0.491782	359.543
252.3000	-0.481669	359.619
252.2000	-0.509741	359.681
252.1000	-0.530971	359.752
252.0000	-0.504028	359.826
251.9000	-0.481592	359.898
251.8000	-0.492875	359.985
251.7000	-0.596275	360.059
251.6000	-0.617879	360.144
251.5000	-0.644932	360.232
251.4000	-0.661553	360.336
251.3000	-0.596767	360.43
251.2000	-0.616369	360.518
251.1000	-0.643784	360.623
251.0000	-0.721744	360.722
250.9000	-0.781141	360.834
250.8000	-0.835202	360.947
250.7000	-0.863616	361.073
250.6000	-0.85698	361.193
250.5000	-0.974592	361.303
250.4000	-1.00551	361.421
250.3000	-0.899301	361.528
250.2000	-0.803106	361.642
250.1000	-0.717951	361.751
250.0000	-0.735565	361.85
249.9000	-0.776278	361.939
249.8000	-0.86994	362.008
249.7000	-0.809319	362.094
249.6000	-0.762961	362.181
249.5000	-0.801089	362.27
249.4000	-0.922839	362.364
249.3000	-0.951146	362.461
249.2000	-0.951254	362.55
249.1000	-0.851876	362.641
249.0000	-0.848384	362.734
248.9000	-0.727641	362.838
248.8000	-0.734577	362.952
248.7000	-0.752242	363.057
248.6000	-0.740491	363.15
248.5000	-0.761874	363.24
248.4000	-0.717019	363.34
248.3000	-0.759204	363.438
248.2000	-0.655348	363.545
248.1000	-0.6824	363.642
248.0000	-0.732103	363.724
247.9000	-0.779639	363.81
247.8000	-0.844427	363.897
247.7000	-0.846255	363.983
247.6000	-0.925522	364.071
247.5000	-0.859468	364.165
247.4000	-0.823577	364.253
247.3000	-0.792312	364.335
247.2000	-0.789678	364.421
247.1000	-0.795521	364.506
247.0000	-0.691029	364.6
246.9000	-0.666102	364.704
246.8000	-0.606005	364.798
246.7000	-0.594191	364.891
246.6000	-0.65848	364.978
246.5000	-0.707903	365.073
246.4000	-0.740666	365.166
246.3000	-0.734661	365.265
246.2000	-0.724802	365.365
246.1000	-0.697508	365.463
246.0000	-0.626245	365.556
245.9000	-0.643182	365.648
245.8000	-0.753753	365.739
245.7000	-0.752548	365.847
245.6000	-0.627699	365.969
245.5000	-0.487923	366.092
245.4000	-0.426052	366.204
245.3000	-0.384198	366.315
245.2000	-0.463969	366.435
245.1000	-0.540148	366.55
245.0000	-0.541807	366.666
244.9000	-0.575529	366.778
244.8000	-0.637377	366.886
244.7000	-0.751453	366.99
244.6000	-0.790336	367.095
244.5000	-0.874375	367.199
244.4000	-0.872427	367.304
244.3000	-0.822177	367.421
244.2000	-0.807724	367.54
244.1000	-0.796453	367.659
244.0000	-0.766684	367.771
243.9000	-0.742062	367.879
243.8000	-0.718846	367.985
243.7000	-0.653648	368.095
243.6000	-0.655407	368.198
243.5000	-0.659848	368.292
243.4000	-0.600818	368.399
243.3000	-0.51634	368.501
243.2000	-0.487393	368.598
243.1000	-0.421657	368.7
243.0000	-0.354	368.812
242.9000	-0.369792	368.923
242.8000	-0.334644	369.038
242.7000	-0.318386	369.158
242.6000	-0.289662	369.266
242.5000	-0.305783	369.362
242.4000	-0.374929	369.476
242.3000	-0.412716	369.594
242.2000	-0.524538	369.704
242.1000	-0.636315	369.818
242.0000	-0.761239	369.934
241.9000	-0.859552	370.053
241.8000	-0.889549	370.178
241.7000	-0.849918	370.317
241.6000	-0.776097	370.456
241.5000	-0.671475	370.588
241.4000	-0.667968	370.715
241.3000	-0.629751	370.842
241.2000	-0.560105	370.965
241.1000	-0.497595	371.087
241.0000	-0.435948	371.198
240.9000	-0.501675	371.309
240.8000	-0.5405	371.426
240.7000	-0.656404	371.543
240.6000	-0.769314	371.673
240.5000	-0.920258	371.809
240.4000	-0.995437	371.952
240.3000	-1.03797	372.099
240.2000	-1.12017	372.251
240.1000	-1.21202	372.398
240.0000	-1.18757	372.543
239.9000	-1.13534	372.693
239.8000	-1.05609	372.844
239.7000	-0.997002	372.988
239.6000	-0.864654	373.135
239.5000	-0.791547	373.281
239.4000	-0.701829	373.434
239.3000	-0.620186	373.594
239.2000	-0.609526	373.757
239.1000	-0.652693	373.922
239.0000	-0.712673	374.09
238.9000	-0.730528	374.262
238.8000	-0.828583	374.42
238.7000	-0.960117	374.575
238.6000	-1.06112	374.726
238.5000	-1.12103	374.875
238.4000	-1.19053	375.028
238.3000	-1.16167	375.176
238.2000	-1.09326	375.317
238.1000	-1.071	375.453
238.0000	-1.02604	375.598
237.9000	-0.97412	375.747
237.8000	-0.92459	375.898
237.7000	-0.876697	376.05
237.6000	-0.870241	376.199
237.5000	-0.893072	376.354
237.4000	-1.00403	376.513
237.3000	-0.982951	376.678
237.2000	-0.941763	376.845
237.1000	-0.873924	377.007
237.0000	-0.951237	377.167
236.9000	-0.938163	377.333
236.8000	-0.892819	377.504
236.7000	-0.925401	377.673
236.6000	-0.948996	377.833
236.5000	-0.92786	377.999
236.4000	-0.978969	378.168
236.3000	-1.0037	378.344
236.2000	-0.980218	378.528
236.1000	-0.997472	378.706
236.0000	-1.12906	378.876
235.9000	-1.09049	379.047
235.8000	-0.97667	379.228
235.7000	-0.925309	379.406
235.6000	-0.965418	379.577
235.5000	-1.04019	379.744
235.4000	-1.07431	379.913
235.3000	-1.05477	380.083
235.2000	-1.00504	380.259
235.1000	-0.976471	380.436
235.0000	-0.932747	380.615
234.9000	-0.904436	380.79
234.8000	-0.904147	380.967
234.7000	-0.842648	381.153
234.6000	-0.767419	381.335
234.5000	-0.708667	381.518
234.4000	-0.74133	381.706
234.3000	-0.670692	381.892
234.2000	-0.607054	382.076
234.1000	-0.666942	382.263
234.0000	-0.72091	382.447
233.9000	-0.743731	382.633
233.8000	-0.831159	382.823
233.7000	-0.91284	383.012
233.6000	-0.864112	383.205
233.5000	-0.778406	383.399
233.4000	-0.812043	383.584
233.3000	-0.783609	383.775
233.2000	-0.715594	383.977
233.1000	-0.693342	384.172
233.0000	-0.63997	384.365
232.9000	-0.562704	384.564
232.8000	-0.496027	384.76
232.7000	-0.626029	384.953
232.6000	-0.730011	385.151
232.5000	-0.753857	385.353
232.4000	-0.805659	385.537
232.3000	-0.785327	385.728
232.2000	-0.810832	385.916
232.1000	-0.762827	386.111
232.0000	-0.793245	386.299
231.9000	-0.749369	386.489
231.8000	-0.652462	386.679
231.7000	-0.649999	386.87
231.6000	-0.579265	387.075
231.5000	-0.520307	387.272
231.4000	-0.381733	387.471
231.3000	-0.363712	387.657
231.2000	-0.278149	387.851
231.1000	-0.273841	388.042
231.0000	-0.283567	388.234
230.9000	-0.310213	388.432
230.8000	-0.36223	388.615
230.7000	-0.470836	388.805
230.6000	-0.632615	388.989
230.5000	-0.796639	389.184
230.4000	-0.880243	389.381
230.3000	-0.947325	389.581
230.2000	-1.00589	389.787
230.1000	-1.01179	389.999
230.0000	-1.12374	390.206
229.9000	-1.15356	390.406
229.8000	-1.05836	390.616
229.7000	-0.928955	390.816
229.6000	-0.819119	391.014
229.5000	-0.763299	391.201
229.4000	-0.773312	391.374
229.3000	-0.813003	391.539
229.2000	-0.732651	391.705
229.1000	-0.66045	391.877
229.0000	-0.660302	392.055
228.9000	-0.615879	392.237
228.8000	-0.609398	392.422
228.7000	-0.635285	392.619
228.6000	-0.498522	392.837
228.5000	-0.331788	393.061
228.4000	-0.335885	393.287
228.3000	-0.307003	393.519
228.2000	-0.300971	393.746
228.1000	-0.360467	393.985
228.0000	-0.494644	394.221
227.9000	-0.540267	394.454
227.8000	-0.777361	394.671
227.7000	-0.84428	394.902
227.6000	-0.852241	395.127
227.5000	-0.806709	395.355
227.4000	-0.749738	395.588
227.3000	-0.77516	395.815
227.2000	-0.705029	396.042
227.1000	-0.675027	396.261
227.0000	-0.580803	396.479
226.9000	-0.480966	396.692
226.8000	-0.52318	396.902
226.7000	-0.604595	397.11
226.6000	-0.714175	397.314
226.5000	-0.672031	397.516
226.4000	-0.580064	397.717
226.3000	-0.552193	397.92
226.2000	-0.609856	398.13
226.1000	-0.729316	398.34
226.0000	-0.78836	398.549
225.9000	-0.86691	398.756
225.8000	-0.876257	398.963
225.7000	-0.976493	399.165
225.6000	-1.09747	399.369
225.5000	-1.09985	399.578
225.4000	-0.951937	399.795
225.3000	-0.803155	400.016
225.2000	-0.78281	400.234
225.1000	-0.684626	400.454
225.0000	-0.547676	400.676
224.9000	-0.419564	400.902
224.8000	-0.292553	401.126
224.7000	-0.386715	401.344
224.6000	-0.604116	401.553
224.5000	-0.781421	401.759
224.4000	-0.862355	401.967
224.3000	-0.843599	402.18
224.2000	-0.894511	402.395
224.1000	-1.101	402.607
224.0000	-1.24524	402.821
223.9000	-1.25178	403.037
223.8000	-1.2389	403.253
223.7000	-1.17999	403.474
223.6000	-1.0608	403.699
223.5000	-0.995685	403.923
223.4000	-1.06848	404.141
223.3000	-0.98414	404.351
223.2000	-0.842491	404.566
223.1000	-0.8006	404.783
223.0000	-0.794814	405
222.9000	-0.837521	405.213
222.8000	-0.825661	405.421
222.7000	-0.93945	405.622
222.6000	-0.939426	405.825
222.5000	-0.878469	406.035
222.4000	-0.840569	406.241
222.3000	-0.892575	406.441
222.2000	-0.873613	406.642
222.1000	-0.850131	406.843
222.0000	-0.920195	407.042
221.9000	-0.964492	407.237
221.8000	-0.989772	407.437
221.7000	-1.14797	407.637
221.6000	-1.40257	407.834
221.5000	-1.52085	408.04
221.4000	-1.35123	408.252
221.3000	-1.38167	408.458
221.2000	-1.35029	408.667
221.1000	-1.30203	408.88
221.0000	-1.33008	409.086
220.9000	-1.2932	409.297
220.8000	-1.02074	409.52
220.7000	-0.868624	409.732
220.6000	-0.935306	409.94
220.5000	-0.930368	410.154
220.4000	-0.944433	410.362
220.3000	-1.02807	410.568
220.2000	-1.03377	410.784
220.1000	-0.939671	410.999
220.0000	-0.899189	411.209
219.9000	-0.965815	411.421
219.8000	-1.00587	411.631
219.7000	-1.02508	411.839
219.6000	-0.890102	412.052
219.5000	-0.818494	412.267
219.4000	-0.791891	412.48
219.3000	-0.903567	412.689
219.2000	-1.14281	412.895
219.1000	-1.26528	413.102
219.0000	-1.22241	413.32
218.9000	-1.1525	413.534
218.8000	-1.30083	413.746
218.7000	-1.37463	413.955
218.6000	-1.34902	414.168
218.5000	-1.05379	414.388
218.4000	-0.711754	414.608
218.3000	-0.448235	414.822
218.2000	-0.351602	415.028
218.1000	-0.42954	415.23
218.0000	-0.36097	415.442
217.9000	-0.336681	415.65
217.8000	-0.35543	415.851
217.7000	-0.615396	416.047
217.6000	-0.864285	416.244
217.5000	-1.01422	416.451
217.4000	-1.06219	416.658
217.3000	-0.938103	416.873
217.2000	-0.824457	417.087
217.1000	-0.824132	417.294
217.0000	-0.837068	417.503
216.9000	-0.762197	417.719
216.8000	-0.725007	417.931
216.7000	-0.794509	418.136
216.6000	-0.931587	418.344
216.5000	-1.18225	418.546
216.4000	-1.43121	418.741
216.3000	-1.59656	418.939
216.2000	-1.63091	419.152
216.1000	-1.58696	419.364
216.0000	-1.63986	419.572
215.9000	-1.7795	419.773
215.8000	-1.90947	419.972
215.7000	-2.02777	420.179
215.6000	-1.94181	420.398
215.5000	-1.82272	420.619
215.4000	-1.78149	420.829
215.3000	-1.71395	421.04
215.2000	-1.69224	421.25
215.1000	-1.48107	421.476
215.0000	-1.25627	421.703
214.9000	-0.991749	421.929
214.8000	-0.907706	422.144
214.7000	-1.07109	422.353
214.6000	-1.0547	422.571
214.5000	-1.09732	422.789
214.4000	-1.03338	423.012
214.3000	-0.978853	423.231
214.2000	-1.09801	423.442
214.1000	-1.22769	423.655
214.0000	-1.31377	423.87
213.9000	-1.32077	424.091
213.8000	-1.31939	424.313
213.7000	-1.118	424.544
213.6000	-0.996438	424.771
213.5000	-1.04839	424.998
213.4000	-1.03882	425.226
213.3000	-1.01188	425.456
213.2000	-0.84939	425.693
213.1000	-0.786427	425.928
213.0000	-0.623277	426.166
212.9000	-0.76262	426.395
212.8000	-0.946623	426.617
212.7000	-1.01873	426.841
212.6000	-1.0312	427.071
212.5000	-1.05961	427.304
212.4000	-1.08017	427.537
212.3000	-1.14985	427.763
212.2000	-1.19084	427.996
212.1000	-1.10784	428.234
212.0000	-1.075	428.478
211.9000	-0.972886	428.727
211.8000	-0.791882	428.978
211.7000	-0.801285	429.225
211.6000	-0.781842	429.473
211.5000	-0.706739	429.726
211.4000	-0.642039	429.978
211.3000	-0.626407	430.229
211.2000	-0.682686	430.474
211.1000	-0.783703	430.721
211.0000	-0.95919	430.972
210.9000	-0.995169	431.22
210.8000	-1.03556	431.468
210.7000	-1.08876	431.723
210.6000	-1.02668	431.984
210.5000	-1.09717	432.241
210.4000	-1.24189	432.498
210.3000	-1.33314	432.761
210.2000	-1.39492	433.016
210.1000	-1.36767	433.281
210.0000	-1.20628	433.556
209.9000	-1.27201	433.823
209.8000	-1.36135	434.077
209.7000	-1.35547	434.339
209.6000	-1.13707	434.611
209.5000	-0.865162	434.886
209.4000	-0.802967	435.154
209.3000	-0.70435	435.422
209.2000	-0.66116	435.69
209.1000	-0.675031	435.954
209.0000	-0.723055	436.22
208.9000	-0.774075	436.493
208.8000	-0.971283	436.754
208.7000	-1.32449	437.007
208.6000	-1.39987	437.279
208.5000	-1.50493	437.551
208.4000	-1.85792	437.812
208.3000	-1.86161	438.084
208.2000	-1.62575	438.365
208.1000	-1.55988	438.64
208.0000	-1.55224	438.913
207.9000	-1.37804	439.191
207.8000	-1.32379	439.464
207.7000	-1.19038	439.74
207.6000	-1.03446	440.017
207.5000	-1.11113	440.286
207.4000	-1.21918	440.55
207.3000	-1.27699	440.815
207.2000	-1.44208	441.073
207.1000	-1.52749	441.336
207.0000	-1.39965	441.605
206.9000	-1.54136	441.862
206.8000	-1.65358	442.122
206.7000	-1.626	442.386
206.6000	-1.6463	442.652
206.5000	-1.74206	442.914
206.4000	-1.67267	443.186
206.3000	-1.55656	443.462
206.2000	-1.56897	443.722
206.1000	-1.47722	443.982
206.0000	-1.33794	444.245
205.9000	-1.20947	444.508
205.8000	-1.12619	444.769
205.7000	-1.04506	445.027
205.6000	-0.974395	445.29
205.5000	-0.849751	445.554
205.4000	-0.918533	445.814
205.3000	-1.05656	446.076
205.2000	-1.12163	446.34
205.1000	-1.22328	446.606
205.0000	-1.33489	446.867
204.9000	-1.28296	447.138
204.8000	-1.32863	447.403
204.7000	-1.36675	447.671
204.6000	-1.46532	447.934
204.5000	-1.4995	448.206
204.4000	-1.47222	448.478
204.3000	-1.18585	448.755
204.2000	-1.11312	449.032
204.1000	-1.22189	449.299
204.0000	-1.25082	449.569
203.9000	-1.22865	449.837
203.8000	-1.13482	450.111
203.7000	-1.18517	450.383
203.6000	-1.14728	450.658
203.5000	-1.37256	450.923
203.4000	-1.35916	451.197
203.3000	-1.08251	451.481
203.2000	-0.891131	451.764
203.1000	-0.804851	452.046
203.0000	-0.671757	452.334
202.9000	-0.565332	452.617
202.8000	-0.522784	452.897
202.7000	-0.445071	453.182
202.6000	-0.455882	453.462
202.5000	-0.528315	453.738
202.4000	-0.661772	454.01
202.3000	-0.76344	454.286
202.2000	-0.933454	454.559
202.1000	-0.976347	454.833
202.0000	-1.00207	455.114
201.9000	-0.951219	455.403
201.8000	-1.00301	455.689
201.7000	-1.02809	455.983
201.6000	-1.10466	456.279
201.5000	-0.928113	456.583
201.4000	-0.628687	456.896
201.3000	-0.651399	457.202
201.2000	-0.604742	457.512
201.1000	-0.565878	457.821
201.0000	-0.648252	458.128
200.9000	-0.567539	458.441
200.8000	-0.521983	458.755
200.7000	-0.411606	459.075
200.6000	-0.70257	459.388
200.5000	-0.587511	459.722
200.4000	-0.456541	460.064
200.3000	-0.575377	460.4
200.2000	-0.811477	460.736
200.1000	-0.794435	461.076
200.0000	-0.763233	461.418
199.9000	-0.83659	461.751
199.8000	-0.85813	462.078
199.7000	-1.26211	462.378
199.6000	-1.36212	462.681
199.5000	-1.41341	462.982
199.4000	-1.1923	463.291
199.3000	-0.994811	463.6
199.2000	-1.08029	463.906
199.1000	-1.0792	464.219
199.0000	-0.926894	464.544
198.9000	-0.803842	464.88
198.8000	-0.823548	465.223
198.7000	-0.804442	465.575
198.6000	-0.777071	465.936
198.5000	-0.930964	466.299
198.4000	-1.02466	466.666
198.3000	-1.27611	467.038
198.2000	-1.44187	467.429
198.1000	-1.47896	467.842
198.0000	-1.4117	468.28
197.9000	0.611531	468.732
197.8000	0.533448	469.182
197.7000	0.694605	469.644
197.6000	0.780917	470.098
197.5000	0.990734	470.542
197.4000	1.06233	470.952
197.3000	1.22159	471.328
197.2000	1.44267	471.656
197.1000	1.59618	471.943
197.0000	1.85931	472.208
196.9000	1.97239	472.451
196.8000	2.08399	472.691
196.7000	2.17521	472.939
196.6000	2.19726	473.203
196.5000	2.30735	473.498
196.4000	2.34819	473.832
196.3000	2.32527	474.208
196.2000	2.26297	474.62
196.1000	1.93635	475.072
196.0000	1.55789	475.577
195.9000	1.20009	476.152
195.8000	0.947865	476.826
195.7000	0.933556	477.613
195.6000	0.713135	478.488
195.5000	0.586047	479.443
195.4000	0.492567	480.447
195.3000	0.723877	481.47
195.2000	1.06633	482.471
195.1000	1.44869	483.395
195.0000	1.5426	484.166
194.9000	1.59874	484.745
194.8000	1.3969	485.115
194.7000	1.66712	485.328
194.6000	2.01364	485.413
194.5000	1.92905	485.399
194.4000	1.64999	485.335
194.3000	1.51497	485.28
194.2000	1.46665	485.299
194.1000	1.40068	485.44
194.0000	1.45977	485.758
193.9000	1.18463	486.257
193.8000	0.809138	486.959
193.7000	0.666441	487.911
193.6000	0.81946	489.143
193.5000	1.27101	490.697
193.4000	1.39918	492.564
193.3000	1.79056	494.736
193.2000	2.19594	497.115
193.1000	2.72852	499.605
193.0000	3.08576	502.092
192.9000	3.52344	504.433
192.8000	3.81395	506.467
192.7000	3.62458	507.999
192.6000	3.34539	508.926
192.5000	2.90299	509.25
192.4000	2.55562	509.057
192.3000	2.03234	508.465
192.2000	1.73319	507.612
192.1000	1.29082	506.63
192.0000	0.651474	505.686
191.9000	0.332426	504.986
191.8000	0.188164	504.701
191.7000	0.295588	504.912
191.6000	0.335725	505.638
191.5000	0.437557	506.88
191.4000	0.158255	508.638
191.3000	0.160072	510.947
191.2000	0.525174	513.806
191.1000	0.723624	517.131
191.0000	0.941641	520.769
190.9000	1.06075	524.531
190.8000	1.08998	528.236
190.7000	1.19044	531.693
190.6000	1.38156	534.695
190.5000	1.61975	537.019
190.4000	0.951947	538.455
190.3000	0.659348	539.007
190.2000	0.845427	538.83
190.1000	0.921924	538.107
190.0000	0.977628	537.066

##### Extended Information
[Comments]
Sample name	Seo_0.8uM
Comment
User
Division
Company	CSIR-IMTECH

[Detailed Information]
Creation date	4/8/2024 3:35 PM

Data array type	Linear data array * 2
Horizontal axis	Wavelength [nm]
Vertical axis(1)	CD [mdeg]
Vertical axis(2)	HT [V]
Start	350 nm
End	190 nm
Data interval	0.1 nm
Data points	1601    

[Measurement Information]
Instrument Name	JASCO CD
Model Name	J-815
Serial No.	B063061168

Accessory	PTC-423S
Accessory S/N	C013945-01
  Temperature	37.42 C
  Control Sonsor	Cell
  Monitor Sensor	Cell
  Start Mode	Start immediately
  Cell Length	10 mm

Measurement date	4/8/2024 3:33 PM

Photometric Mode	CD, HT
Measure Range	350 - 190 nm
Data pitch	0.1 nm
Sensitivity	Standard
D.I.T.	1 sec
Bandwidth	1.00 nm
Start Mode	Immediately
Scanning Speed	50 nm/min
Baseline Correction	None
Shutter Control	Auto
CD Detector	PMT
PMT Voltage	Auto
Accumulations	3
Concentration	0.8 umol/L

