TITLE	Doxer_0.8uM
DATA TYPE	
ORIGIN	JASCO
OWNER	
DATE	24/04/08
TIME	16:11:32
SPECTROMETER/DATA SYSTEM	
LOCALE	1033
RESOLUTION	
DELTAX	-0.1
XUNITS	NANOMETERS
YUNITS	Mol. Ellip.
Y2UNITS	HT [V]
FIRSTX	  350.0000
LASTX	  190.0000
NPOINTS	    1601
FIRSTY	-162790.62500
MAXY	206952.92188
MINY	-183470.75000
XYDATA
350.0000	-162791	499.286
349.9000	-176612	498.653
349.8000	-133483	497.741
349.7000	-80886	496.818
349.6000	-55544.6	496.149
349.5000	-54099.7	495.569
349.4000	-47798.9	494.68
349.3000	-26454.2	494.051
349.2000	-33093	493.515
349.1000	41035.1	492.69
349.0000	101369	492.087
348.9000	83709.2	491.544
348.8000	65181.2	490.711
348.7000	84310.7	489.878
348.6000	134819	489.298
348.5000	137217	488.784
348.4000	124879	487.926
348.3000	117259	487.289
348.2000	73379.7	486.72
348.1000	66044.2	485.859
348.0000	76157.5	485.207
347.9000	66066.4	484.623
347.8000	28065.5	483.744
347.7000	-12942.3	482.85
347.6000	-39113.2	482.214
347.5000	-47056.1	481.692
347.4000	-36359.2	480.878
347.3000	-12418	480.272
347.2000	-10530.7	479.76
347.1000	1922.59	479.014
347.0000	9464.48	478.474
346.9000	493.051	478.018
346.8000	7983.82	477.292
346.7000	27684.2	476.556
346.6000	15217.8	476.01
346.5000	3615.43	475.277
346.4000	-13234.1	474.524
346.3000	-11384.1	473.935
346.2000	-3980.84	473.157
346.1000	5745.47	472.358
346.0000	8681.5	471.761
345.9000	-16510.1	471.234
345.8000	-39530.1	470.423
345.7000	-76924.2	469.822
345.6000	-80688.3	469.323
345.5000	-93024.4	468.608
345.4000	-109226	468.088
345.3000	-119711	467.653
345.2000	-107268	466.964
345.1000	-105762	466.266
345.0000	-115835	465.757
344.9000	-109355	465.112
344.8000	-99467.8	464.448
344.7000	-115461	463.928
344.6000	-122057	463.239
344.5000	-124631	462.534
344.4000	-115866	462.01
344.3000	-119779	461.321
344.2000	-82831.7	460.636
344.1000	-65354.3	460.112
344.0000	-65014	459.427
343.9000	-41790.6	458.742
343.8000	-3570.61	458.253
343.7000	4434.38	457.834
343.6000	9220.92	457.195
343.5000	19708	456.736
343.4000	26941.3	456.356
343.3000	28604.5	455.724
343.2000	22609.2	455.263
343.1000	-8339.51	454.862
343.0000	-38004.9	454.275
342.9000	-23528.4	453.678
342.8000	-8927.41	453.228
342.7000	-27504.4	452.597
342.6000	-24930.9	451.955
342.5000	-50323.2	451.479
342.4000	-50861.8	450.894
342.3000	-45828.9	450.298
342.2000	-51190.1	449.828
342.1000	-71480.2	449.218
342.0000	-99895.9	448.614
341.9000	-99028.1	448.2
341.8000	-102617	447.655
341.7000	-79150.8	447.11
341.6000	-69317.4	446.708
341.5000	-58010.6	446.196
341.4000	-41633.9	445.679
341.3000	-40998.9	445.295
341.2000	-42356.8	444.744
341.1000	-50734.4	444.166
341.0000	-60967.4	443.728
340.9000	-73066.6	443.162
340.8000	-69335.1	442.579
340.7000	-65059.5	442.122
340.6000	-74189.4	441.551
340.5000	-70116.6	440.98
340.4000	-56282.7	440.57
340.3000	-42043.6	440.04
340.2000	-49015.3	439.503
340.1000	-66412.5	439.112
340.0000	-90351.8	438.617
339.9000	-114893	438.126
339.8000	-106272	437.767
339.7000	-94693.1	437.315
339.6000	-115983	436.845
339.5000	-118945	436.523
339.4000	-112324	436.069
339.3000	-73900.8	435.595
339.2000	-55132.3	435.081
339.1000	-51956.8	434.614
339.0000	-56587.6	434.126
338.9000	-62181.3	433.553
338.8000	-34487.1	433.03
338.7000	-46531.8	432.491
338.6000	-63873.4	431.916
338.5000	-89613.6	431.416
338.4000	-99714.2	431.046
338.3000	-72884.5	430.594
338.2000	-35871.8	430.149
338.1000	-16849.7	429.842
338.0000	-17455.4	429.424
337.9000	-13567.2	429.002
337.8000	-3830.85	428.708
337.7000	8660.61	428.32
337.6000	16946.5	427.911
337.5000	7427.91	427.589
337.4000	-31789.9	427.166
337.3000	-54832.1	426.728
337.2000	-92543.8	426.24
337.1000	-107002	425.813
337.0000	-124866	425.377
336.9000	-132434	424.9
336.8000	-129732	424.485
336.7000	-120994	424.074
336.6000	-109425	423.623
336.5000	-117456	423.211
336.4000	-97799.5	422.936
336.3000	-85845.1	422.536
336.2000	-83990.6	422.124
336.1000	-79896.9	421.823
336.0000	-83719.2	421.449
335.9000	-102890	421.049
335.8000	-111529	420.601
335.7000	-107749	420.199
335.6000	-101728	419.78
335.5000	-89271.8	419.356
335.4000	-77094.1	418.994
335.3000	-73102.2	418.631
335.2000	-69251.8	418.246
335.1000	-55588.7	417.91
335.0000	-54338.3	417.689
334.9000	-48396.5	417.371
334.8000	-47841.5	417.039
334.7000	-57833.1	416.672
334.6000	-66938.3	416.349
334.5000	-68362.6	416.014
334.4000	-74152.9	415.611
334.3000	-79334.1	415.228
334.2000	-88450.7	414.832
334.1000	-86233.3	414.399
334.0000	-97476.3	414.014
333.9000	-104530	413.729
333.8000	-109781	413.375
333.7000	-116131	413.015
333.6000	-120120	412.625
333.5000	-118284	412.296
333.4000	-103068	411.973
333.3000	-101767	411.632
333.2000	-98349.4	411.341
333.1000	-93593.9	411.043
333.0000	-93015.4	410.711
332.9000	-93014.1	410.406
332.8000	-92840.3	410.054
332.7000	-97003.3	409.74
332.6000	-96149	409.417
332.5000	-118845	409.053
332.4000	-136190	408.735
332.3000	-145986	408.415
332.2000	-143191	408.056
332.1000	-143044	407.725
332.0000	-132411	407.391
331.9000	-124396	407.108
331.8000	-142297	406.816
331.7000	-137407	406.493
331.6000	-110958	406.203
331.5000	-89010.9	405.788
331.4000	-71454.9	405.456
331.3000	-60378.9	405.167
331.2000	-56503.5	404.832
331.1000	-72461.8	404.52
331.0000	-76304	404.204
330.9000	-70436.5	403.884
330.8000	-68184.8	403.602
330.7000	-77077.3	403.283
330.6000	-93136	403.002
330.5000	-95195.1	402.726
330.4000	-95442.6	402.432
330.3000	-104777	402.179
330.2000	-101554	401.816
330.1000	-104671	401.519
330.0000	-121293	401.249
329.9000	-134358	400.956
329.8000	-138830	400.699
329.7000	-147408	400.348
329.6000	-155953	400.069
329.5000	-148021	399.824
329.4000	-143090	399.524
329.3000	-123809	399.26
329.2000	-109703	398.896
329.1000	-98636.9	398.609
329.0000	-81616	398.363
328.9000	-63044.9	398.082
328.8000	-54584.4	397.829
328.7000	-49692.2	397.481
328.6000	-32821	397.234
328.5000	-34958.1	397.026
328.4000	-39815.1	396.769
328.3000	-35900.6	396.542
328.2000	-33767.1	396.233
328.1000	-36989.8	395.989
328.0000	-46130.5	395.774
327.9000	-47489.4	395.503
327.8000	-49648.4	395.259
327.7000	-41824.5	394.975
327.6000	-43151	394.775
327.5000	-51485.6	394.617
327.4000	-45125.3	394.352
327.3000	-37480.3	394.11
327.2000	-36994.9	393.805
327.1000	-36865.6	393.583
327.0000	-38967.7	393.405
326.9000	-45475.4	393.13
326.8000	-46948.3	392.855
326.7000	-49021.2	392.535
326.6000	-58265	392.326
326.5000	-71345.9	392.168
326.4000	-80230.5	391.895
326.3000	-80572.2	391.638
326.2000	-91167.9	391.347
326.1000	-99661.5	391.143
326.0000	-100584	390.829
325.9000	-97260.9	390.55
325.8000	-93669.2	390.285
325.7000	-92948.6	390.036
325.6000	-85699.9	389.902
325.5000	-77665.3	389.613
325.4000	-71679.8	389.336
325.3000	-72023.6	389.056
325.2000	-75691.4	388.89
325.1000	-75711.7	388.774
325.0000	-73231.1	388.489
324.9000	-78049	388.185
324.8000	-83454	387.861
324.7000	-95980.8	387.689
324.6000	-86385.7	387.602
324.5000	-73627.4	387.329
324.4000	-59871.2	387.055
324.3000	-46536.7	386.8
324.2000	-54665.2	386.655
324.1000	-49888.3	386.38
324.0000	-41255.3	386.111
323.9000	-47438.5	385.833
323.8000	-59154.9	385.583
323.7000	-63884.4	385.464
323.6000	-73426.6	385.189
323.5000	-76791.1	384.886
323.4000	-71657.7	384.59
323.3000	-58920.2	384.436
323.2000	-51766.1	384.347
323.1000	-52754.7	384.078
323.0000	-49469.2	383.784
322.9000	-43841.3	383.488
322.8000	-40626.7	383.347
322.7000	-50421.8	383.094
322.6000	-58013.6	382.812
322.5000	-49090.9	382.537
322.4000	-48253.8	382.256
322.3000	-41356.3	382.089
322.2000	-38549.7	381.786
322.1000	-40844.5	381.456
322.0000	-53880.7	381.122
321.9000	-48671.6	380.928
321.8000	-41198.9	380.626
321.7000	-50663.6	380.305
321.6000	-60661.8	379.977
321.5000	-64893.2	379.674
321.4000	-69374.8	379.522
321.3000	-72193.1	379.311
321.2000	-75313.1	379.094
321.1000	-75411.7	378.875
321.0000	-80294.4	378.798
320.9000	-84710.3	378.648
320.8000	-91396.5	378.494
320.7000	-96084.5	378.348
320.6000	-95328.8	378.199
320.5000	-93674.8	378.15
320.4000	-84017	377.987
320.3000	-66010.8	377.811
320.2000	-57579.1	377.645
320.1000	-58672.5	377.58
320.0000	-72389	377.414
319.9000	-80319.5	377.231
319.8000	-88021.7	377.043
319.7000	-79808.5	376.854
319.6000	-77336.6	376.633
319.5000	-90488.6	376.467
319.4000	-111102	376.279
319.3000	-119745	376.068
319.2000	-119383	375.961
319.1000	-117849	375.759
319.0000	-112906	375.542
318.9000	-121753	375.311
318.8000	-123162	375.182
318.7000	-125440	374.952
318.6000	-119057	374.718
318.5000	-121073	374.512
318.4000	-123834	374.306
318.3000	-111623	374.089
318.2000	-107525	373.925
318.1000	-105274	373.765
318.0000	-107990	373.587
317.9000	-112143	373.513
317.8000	-112781	373.383
317.7000	-102430	373.234
317.6000	-93633.4	373.052
317.5000	-93610.1	372.946
317.4000	-101728	372.762
317.3000	-110867	372.566
317.2000	-109314	372.37
317.1000	-109004	372.171
317.0000	-114657	371.915
316.9000	-119507	371.7
316.8000	-117257	371.505
316.7000	-113138	371.314
316.6000	-112206	371.121
316.5000	-93625.5	370.968
316.4000	-74169.3	370.804
316.3000	-53596.4	370.631
316.2000	-34766.1	370.461
316.1000	-17893.4	370.337
316.0000	-16973.5	370.206
315.9000	-22202.3	370.032
315.8000	-33829.5	369.916
315.7000	-51270.1	369.731
315.6000	-62794.6	369.567
315.5000	-75458.6	369.385
315.4000	-89404	369.271
315.3000	-97708.4	369.071
315.2000	-103193	368.864
315.1000	-101310	368.675
315.0000	-86088.1	368.498
314.9000	-77368.6	368.313
314.8000	-58188.5	368.161
314.7000	-51955.8	368.001
314.6000	-59072.9	367.839
314.5000	-63268.7	367.679
314.4000	-57587.4	367.563
314.3000	-61399.7	367.419
314.2000	-78339.2	367.271
314.1000	-84601.4	367.081
314.0000	-94932.7	366.915
313.9000	-105456	366.749
313.8000	-100138	366.592
313.7000	-89088.4	366.372
313.6000	-85644.2	366.172
313.5000	-77939.8	365.984
313.4000	-66136	365.804
313.3000	-61494	365.63
313.2000	-59169.6	365.487
313.1000	-55178.1	365.326
313.0000	-60341.1	365.166
312.9000	-64082.9	365.02
312.8000	-73972.1	364.913
312.7000	-81044.1	364.779
312.6000	-93120.7	364.647
312.5000	-100296	364.48
312.4000	-109232	364.327
312.3000	-121820	364.154
312.2000	-130078	363.983
312.1000	-138296	363.752
312.0000	-144291	363.535
311.9000	-148593	363.327
311.8000	-146761	363.077
311.7000	-144258	362.878
311.6000	-133726	362.678
311.5000	-124254	362.513
311.4000	-105692	362.307
311.3000	-94346.2	362.176
311.2000	-81794.8	362.053
311.1000	-73561.8	361.952
311.0000	-85461.7	361.832
310.9000	-92410.8	361.737
310.8000	-98498.9	361.633
310.7000	-102269	361.538
310.6000	-107602	361.413
310.5000	-114824	361.307
310.4000	-125020	361.2
310.3000	-131483	361.103
310.2000	-114933	361.018
310.1000	-102702	360.949
310.0000	-83570	360.87
309.9000	-73217.6	360.802
309.8000	-72963.7	360.736
309.7000	-73729.2	360.643
309.6000	-76217.9	360.569
309.5000	-70071.7	360.454
309.4000	-71979.2	360.358
309.3000	-73240.1	360.219
309.2000	-94863.6	360.1
309.1000	-107409	359.917
309.0000	-110350	359.762
308.9000	-111795	359.625
308.8000	-108413	359.5
308.7000	-110429	359.383
308.6000	-114009	359.281
308.5000	-112934	359.175
308.4000	-104191	359.058
308.3000	-106900	358.989
308.2000	-116007	358.885
308.1000	-116340	358.808
308.0000	-113221	358.703
307.9000	-116171	358.611
307.8000	-113193	358.471
307.7000	-120863	358.354
307.6000	-121514	358.224
307.5000	-116814	358.052
307.4000	-106432	357.922
307.3000	-108770	357.792
307.2000	-111834	357.69
307.1000	-110985	357.554
307.0000	-105516	357.461
306.9000	-96816.7	357.37
306.8000	-84257.1	357.315
306.7000	-72020.9	357.255
306.6000	-63407.5	357.172
306.5000	-60891.7	357.094
306.4000	-65725.1	356.968
306.3000	-65115.3	356.878
306.2000	-61577.3	356.754
306.1000	-59234.7	356.644
306.0000	-66001.4	356.491
305.9000	-77234.9	356.379
305.8000	-78537.3	356.296
305.7000	-75131.1	356.18
305.6000	-61140.8	356.103
305.5000	-55057.6	356.021
305.4000	-60186.5	355.969
305.3000	-72183	355.871
305.2000	-77812.8	355.803
305.1000	-81962.8	355.718
305.0000	-87992.1	355.591
304.9000	-91641.3	355.506
304.8000	-97536	355.393
304.7000	-106344	355.293
304.6000	-112517	355.157
304.5000	-108880	355.05
304.4000	-104081	354.964
304.3000	-90718.4	354.853
304.2000	-87279.5	354.79
304.1000	-92633	354.723
304.0000	-100822	354.683
303.9000	-105963	354.598
303.8000	-106707	354.514
303.7000	-106775	354.459
303.6000	-112837	354.348
303.5000	-125619	354.27
303.4000	-134912	354.174
303.3000	-128926	354.06
303.2000	-130226	353.947
303.1000	-124501	353.858
303.0000	-114158	353.811
302.9000	-114376	353.721
302.8000	-101473	353.65
302.7000	-92501.3	353.594
302.6000	-93216.7	353.507
302.5000	-101866	353.455
302.4000	-100512	353.393
302.3000	-93338.6	353.296
302.2000	-100821	353.197
302.1000	-104736	353.105
302.0000	-108964	353.046
301.9000	-116299	352.957
301.8000	-119152	352.881
301.7000	-115433	352.823
301.6000	-119843	352.734
301.5000	-126143	352.689
301.4000	-127603	352.638
301.3000	-127668	352.557
301.2000	-125187	352.483
301.1000	-127872	352.418
301.0000	-122382	352.386
300.9000	-119345	352.311
300.8000	-119038	352.232
300.7000	-127707	352.166
300.6000	-133479	352.081
300.5000	-126663	352.018
300.4000	-120654	351.972
300.3000	-120389	351.895
300.2000	-120546	351.822
300.1000	-122015	351.764
300.0000	-113283	351.701
299.9000	-103839	351.65
299.8000	-96427.5	351.601
299.7000	-99479.9	351.535
299.6000	-104195	351.474
299.5000	-108391	351.412
299.4000	-109765	351.36
299.3000	-113942	351.288
299.2000	-116233	351.228
299.1000	-117758	351.183
299.0000	-124144	351.111
298.9000	-125269	351.055
298.8000	-131212	351.013
298.7000	-135504	350.951
298.6000	-139018	350.9
298.5000	-141984	350.846
298.4000	-147197	350.781
298.3000	-147049	350.727
298.2000	-144811	350.667
298.1000	-138500	350.606
298.0000	-137739	350.55
297.9000	-139210	350.5
297.8000	-129683	350.434
297.7000	-122543	350.381
297.6000	-118934	350.341
297.5000	-115154	350.275
297.4000	-115015	350.227
297.3000	-116490	350.185
297.2000	-112796	350.117
297.1000	-105464	350.066
297.0000	-110176	350.011
296.9000	-116230	349.939
296.8000	-119185	349.883
296.7000	-116364	349.835
296.6000	-121152	349.799
296.5000	-121869	349.751
296.4000	-128096	349.71
296.3000	-138534	349.678
296.2000	-136360	349.636
296.1000	-132156	349.599
296.0000	-130587	349.572
295.9000	-124052	349.526
295.8000	-115167	349.461
295.7000	-105802	349.417
295.6000	-97512.1	349.372
295.5000	-80907.3	349.315
295.4000	-72937.1	349.246
295.3000	-66527.9	349.205
295.2000	-67125.2	349.147
295.1000	-63975.8	349.076
295.0000	-65037.2	349.038
294.9000	-70324.9	348.988
294.8000	-78324	348.918
294.7000	-86173.6	348.87
294.6000	-103862	348.825
294.5000	-112249	348.767
294.4000	-108432	348.727
294.3000	-110104	348.698
294.2000	-110182	348.645
294.1000	-109477	348.604
294.0000	-110007	348.577
293.9000	-116854	348.528
293.8000	-112593	348.498
293.7000	-111287	348.476
293.6000	-135025	348.416
293.5000	-150132	348.349
293.4000	-157989	348.317
293.3000	-161562	348.271
293.2000	-157114	348.218
293.1000	-149963	348.191
293.0000	-141787	348.144
292.9000	-146768	348.085
292.8000	-129719	348.063
292.7000	-119202	348.037
292.6000	-110543	347.995
292.5000	-111274	347.934
292.4000	-112470	347.899
292.3000	-114025	347.847
292.2000	-126870	347.791
292.1000	-122963	347.764
292.0000	-122449	347.718
291.9000	-120075	347.659
291.8000	-119527	347.607
291.7000	-127394	347.583
291.6000	-128955	347.536
291.5000	-139339	347.48
291.4000	-137648	347.451
291.3000	-137184	347.392
291.2000	-138666	347.318
291.1000	-136029	347.251
291.0000	-140684	347.197
290.9000	-136826	347.115
290.8000	-134385	347.009
290.7000	-131048	346.897
290.6000	-132065	346.771
290.5000	-128910	346.628
290.4000	-124816	346.482
290.3000	-120193	346.352
290.2000	-109664	346.203
290.1000	-104554	346.049
290.0000	-110273	345.912
289.9000	-108079	345.828
289.8000	-105792	345.757
289.7000	-100290	345.715
289.6000	-105745	345.707
289.5000	-117115	345.734
289.4000	-126126	345.788
289.3000	-130298	345.875
289.2000	-130899	345.978
289.1000	-130792	346.098
289.0000	-120958	346.208
288.9000	-120438	346.309
288.8000	-117628	346.398
288.7000	-116291	346.48
288.6000	-110733	346.537
288.5000	-114412	346.574
288.4000	-117918	346.594
288.3000	-118171	346.608
288.2000	-124644	346.601
288.1000	-128625	346.589
288.0000	-122498	346.57
287.9000	-115473	346.531
287.8000	-110815	346.504
287.7000	-115385	346.473
287.6000	-110863	346.452
287.5000	-102027	346.419
287.4000	-98722.5	346.4
287.3000	-103680	346.38
287.2000	-111930	346.358
287.1000	-118828	346.343
287.0000	-124689	346.305
286.9000	-128845	346.282
286.8000	-141148	346.263
286.7000	-147136	346.244
286.6000	-153452	346.214
286.5000	-156956	346.2
286.4000	-150711	346.193
286.3000	-144897	346.193
286.2000	-141915	346.195
286.1000	-144582	346.189
286.0000	-128125	346.197
285.9000	-111569	346.197
285.8000	-111918	346.194
285.7000	-105409	346.172
285.6000	-110770	346.148
285.5000	-116644	346.146
285.4000	-118699	346.141
285.3000	-123869	346.139
285.2000	-129951	346.109
285.1000	-135825	346.09
285.0000	-131667	346.098
284.9000	-129065	346.096
284.8000	-122818	346.098
284.7000	-111063	346.077
284.6000	-108236	346.06
284.5000	-105679	346.065
284.4000	-98880	346.074
284.3000	-101503	346.087
284.2000	-110893	346.064
284.1000	-106942	346.054
284.0000	-114456	346.033
283.9000	-128634	346.032
283.8000	-133960	346.041
283.7000	-134259	346.028
283.6000	-129322	346.017
283.5000	-133347	346.001
283.4000	-132309	345.992
283.3000	-129242	346.007
283.2000	-122071	346.026
283.1000	-114549	346.034
283.0000	-107475	346.02
282.9000	-109364	346.01
282.8000	-102137	346.004
282.7000	-97414.5	346.017
282.6000	-89707.6	346.036
282.5000	-93070.1	346.041
282.4000	-103186	346.036
282.3000	-110779	346.03
282.2000	-114998	346.031
282.1000	-120000	346.049
282.0000	-130289	346.063
281.9000	-140291	346.063
281.8000	-140129	346.057
281.7000	-127330	346.051
281.6000	-116979	346.046
281.5000	-102471	346.043
281.4000	-100430	346.06
281.3000	-95883.1	346.068
281.2000	-90371	346.07
281.1000	-83255.5	346.069
281.0000	-79436.5	346.06
280.9000	-88745	346.052
280.8000	-102703	346.042
280.7000	-109904	346.042
280.6000	-100160	346.05
280.5000	-98649.4	346.044
280.4000	-101234	346.032
280.3000	-104450	346.02
280.2000	-116154	346.009
280.1000	-122329	346.003
280.0000	-122767	345.997
279.9000	-120492	345.989
279.8000	-128243	345.962
279.7000	-122250	345.957
279.6000	-121713	345.956
279.5000	-126492	345.959
279.4000	-119777	345.964
279.3000	-114583	345.967
279.2000	-115225	345.969
279.1000	-118652	345.972
279.0000	-120387	345.974
278.9000	-128485	345.968
278.8000	-127391	345.981
278.7000	-114980	346.002
278.6000	-114197	346.02
278.5000	-120647	346.039
278.4000	-131622	346.053
278.3000	-131380	346.073
278.2000	-125754	346.098
278.1000	-123079	346.115
278.0000	-125959	346.114
277.9000	-134380	346.102
277.8000	-129032	346.094
277.7000	-129359	346.084
277.6000	-124687	346.1
277.5000	-127762	346.116
277.4000	-132300	346.134
277.3000	-139213	346.15
277.2000	-140417	346.165
277.1000	-136876	346.182
277.0000	-135560	346.203
276.9000	-126082	346.231
276.8000	-112010	346.244
276.7000	-102824	346.244
276.6000	-91389.4	346.245
276.5000	-81017.8	346.243
276.4000	-75634.6	346.244
276.3000	-68920.9	346.252
276.2000	-72184.3	346.254
276.1000	-76678.4	346.254
276.0000	-82869.7	346.274
275.9000	-84229.8	346.295
275.8000	-81512.1	346.32
275.7000	-81036.3	346.348
275.6000	-81956.3	346.381
275.5000	-93947.7	346.407
275.4000	-99322.3	346.438
275.3000	-98273.7	346.469
275.2000	-99170.8	346.486
275.1000	-105912	346.498
275.0000	-110922	346.503
274.9000	-113654	346.513
274.8000	-123179	346.519
274.7000	-126221	346.527
274.6000	-119534	346.536
274.5000	-118767	346.546
274.4000	-117136	346.554
274.3000	-115252	346.565
274.2000	-110941	346.574
274.1000	-111099	346.589
274.0000	-99794.8	346.606
273.9000	-79478.5	346.627
273.8000	-76158.2	346.647
273.7000	-82648.4	346.661
273.6000	-96673.3	346.675
273.5000	-96704.3	346.698
273.4000	-91467	346.723
273.3000	-84308.1	346.749
273.2000	-75221.7	346.772
273.1000	-80871.8	346.791
273.0000	-81660.8	346.807
272.9000	-84788.3	346.825
272.8000	-80669	346.844
272.7000	-74996.8	346.859
272.6000	-78682.5	346.867
272.5000	-83644.3	346.881
272.4000	-95595.5	346.892
272.3000	-106652	346.907
272.2000	-109273	346.926
272.1000	-107542	346.946
272.0000	-92618.8	346.974
271.9000	-83518	347.008
271.8000	-72416.7	347.038
271.7000	-66512.4	347.066
271.6000	-62774.9	347.092
271.5000	-57118.1	347.112
271.4000	-60405.7	347.127
271.3000	-58314.9	347.14
271.2000	-57179.6	347.148
271.1000	-58046.2	347.15
271.0000	-66247.8	347.148
270.9000	-77437.8	347.127
270.8000	-86356.7	347.101
270.7000	-87819.3	347.083
270.6000	-84004.8	347.069
270.5000	-87175.8	347.053
270.4000	-96061.4	347.042
270.3000	-102481	347.027
270.2000	-107171	347.017
270.1000	-106467	347.024
270.0000	-99122	347.042
269.9000	-98402.1	347.054
269.8000	-102590	347.066
269.7000	-103622	347.083
269.6000	-100379	347.104
269.5000	-102974	347.123
269.4000	-99562.4	347.135
269.3000	-103864	347.152
269.2000	-114156	347.176
269.1000	-115312	347.212
269.0000	-115451	347.244
268.9000	-114643	347.285
268.8000	-111862	347.323
268.7000	-109764	347.376
268.6000	-117796	347.435
268.5000	-116580	347.5
268.4000	-108734	347.556
268.3000	-104553	347.593
268.2000	-107470	347.638
268.1000	-105595	347.679
268.0000	-102656	347.731
267.9000	-100088	347.774
267.8000	-87962.4	347.816
267.7000	-80830.3	347.856
267.6000	-83752.1	347.905
267.5000	-73455.2	347.964
267.4000	-67430.7	348.004
267.3000	-67344	348.047
267.2000	-72833.7	348.079
267.1000	-77571.7	348.117
267.0000	-77691.4	348.154
266.9000	-76753.3	348.198
266.8000	-68294.7	348.237
266.7000	-67079.9	348.266
266.6000	-67738.2	348.315
266.5000	-68383.9	348.373
266.4000	-72978.1	348.435
266.3000	-73158.9	348.494
266.2000	-82550.9	348.556
266.1000	-92341.4	348.622
266.0000	-103815	348.679
265.9000	-111708	348.746
265.8000	-125917	348.81
265.7000	-137160	348.875
265.6000	-139999	348.937
265.5000	-141921	348.999
265.4000	-141534	349.05
265.3000	-139156	349.099
265.2000	-130761	349.161
265.1000	-128784	349.224
265.0000	-122176	349.291
264.9000	-113602	349.36
264.8000	-102666	349.419
264.7000	-92178.3	349.485
264.6000	-89896	349.559
264.5000	-90136.1	349.638
264.4000	-95362.6	349.72
264.3000	-91981.6	349.799
264.2000	-94127.6	349.88
264.1000	-89104.8	349.962
264.0000	-86221	350.049
263.9000	-89893.2	350.143
263.8000	-94326.3	350.219
263.7000	-90420.1	350.297
263.6000	-94540.2	350.373
263.5000	-99189	350.441
263.4000	-108802	350.512
263.3000	-116346	350.57
263.2000	-126320	350.634
263.1000	-121736	350.699
263.0000	-107136	350.774
262.9000	-99820.5	350.839
262.8000	-96776.6	350.9
262.7000	-86750.8	350.966
262.6000	-82404.2	351.04
262.5000	-78695.8	351.125
262.4000	-77348.1	351.193
262.3000	-82356.5	351.262
262.2000	-96564.8	351.335
262.1000	-109840	351.422
262.0000	-110128	351.493
261.9000	-107160	351.571
261.8000	-98796.1	351.651
261.7000	-92379.5	351.707
261.6000	-86599.6	351.776
261.5000	-83814.1	351.858
261.4000	-86466.6	351.935
261.3000	-82118.8	351.994
261.2000	-80054.4	352.065
261.1000	-83305.2	352.139
261.0000	-94907.1	352.214
260.9000	-101440	352.291
260.8000	-104097	352.376
260.7000	-95949.3	352.459
260.6000	-79997.6	352.529
260.5000	-69524.8	352.608
260.4000	-63729.8	352.697
260.3000	-66280	352.782
260.2000	-61278	352.859
260.1000	-54561.6	352.954
260.0000	-44676.5	353.054
259.9000	-54738.8	353.136
259.8000	-71051.5	353.234
259.7000	-78359.1	353.341
259.6000	-83307.1	353.433
259.5000	-74394.8	353.529
259.4000	-74363.5	353.638
259.3000	-84093.8	353.731
259.2000	-94167.5	353.825
259.1000	-93273.8	353.928
259.0000	-87558.5	354.016
258.9000	-85983	354.1
258.8000	-82275	354.203
258.7000	-87118.2	354.302
258.6000	-92427.5	354.401
258.5000	-84470.7	354.496
258.4000	-74396.6	354.573
258.3000	-75570.6	354.66
258.2000	-72208.9	354.769
258.1000	-71082.1	354.867
258.0000	-72127.2	354.965
257.9000	-69302.1	355.068
257.8000	-67353.2	355.155
257.7000	-68550.9	355.248
257.6000	-81296.9	355.357
257.5000	-88042.5	355.453
257.4000	-94003.9	355.54
257.3000	-97031.7	355.62
257.2000	-97863	355.699
257.1000	-93729.3	355.782
257.0000	-92267.5	355.873
256.9000	-82685.6	355.968
256.8000	-69442.8	356.05
256.7000	-49544.1	356.15
256.6000	-27421	356.25
256.5000	-14006.5	356.337
256.4000	-4922.36	356.432
256.3000	-3989.56	356.513
256.2000	-4396.1	356.588
256.1000	-6176.44	356.67
256.0000	-15950.4	356.747
255.9000	-27437.7	356.825
255.8000	-40539.3	356.896
255.7000	-45782	356.998
255.6000	-54674.4	357.098
255.5000	-60866.5	357.186
255.4000	-66491.8	357.284
255.3000	-66926.2	357.375
255.2000	-63899.6	357.468
255.1000	-54052.9	357.551
255.0000	-50073.3	357.643
254.9000	-49978.8	357.718
254.8000	-44724.1	357.792
254.7000	-32893.6	357.895
254.6000	-18514.7	357.992
254.5000	-10097	358.088
254.4000	-1806.03	358.178
254.3000	-423.099	358.279
254.2000	-1167.49	358.38
254.1000	-13067	358.479
254.0000	-25476.2	358.571
253.9000	-37528.5	358.666
253.8000	-44973.5	358.753
253.7000	-55534.5	358.847
253.6000	-57908.1	358.945
253.5000	-57771	359.05
253.4000	-60987.1	359.14
253.3000	-60421	359.234
253.2000	-64991.9	359.325
253.1000	-67178.3	359.415
253.0000	-62314.7	359.503
252.9000	-53467.4	359.595
252.8000	-59482.9	359.679
252.7000	-76201.6	359.763
252.6000	-81534.8	359.861
252.5000	-69932.1	359.963
252.4000	-52872.1	360.057
252.3000	-37870.4	360.151
252.2000	-37915.1	360.229
252.1000	-49964.8	360.303
252.0000	-53941.2	360.374
251.9000	-43714	360.439
251.8000	-34433.4	360.498
251.7000	-32074.7	360.554
251.6000	-51238	360.63
251.5000	-53236.4	360.719
251.4000	-47669.1	360.823
251.3000	-47200.7	360.919
251.2000	-44595.8	361.013
251.1000	-49326	361.126
251.0000	-52949.5	361.232
250.9000	-70299.8	361.335
250.8000	-58361.7	361.436
250.7000	-54484.6	361.54
250.6000	-67859.7	361.631
250.5000	-71315.7	361.726
250.4000	-65549.5	361.834
250.3000	-59852.3	361.927
250.2000	-56300.7	362.03
250.1000	-54213	362.134
250.0000	-66511.6	362.228
249.9000	-79339.9	362.319
249.8000	-77014.6	362.405
249.7000	-77995.6	362.504
249.6000	-81730.6	362.601
249.5000	-82559.2	362.7
249.4000	-94020.9	362.799
249.3000	-90411.8	362.897
249.2000	-76390.1	362.993
249.1000	-67536.9	363.091
249.0000	-70152	363.188
248.9000	-67869.7	363.28
248.8000	-65072	363.376
248.7000	-68305.8	363.476
248.6000	-70861.1	363.567
248.5000	-71202.2	363.662
248.4000	-77991.5	363.767
248.3000	-90718.6	363.866
248.2000	-94599.2	363.972
248.1000	-92110.4	364.073
248.0000	-86089.3	364.17
247.9000	-79243.9	364.267
247.8000	-86449.4	364.356
247.7000	-91623.9	364.439
247.6000	-85718.2	364.527
247.5000	-69669.3	364.621
247.4000	-52200.8	364.708
247.3000	-38474.1	364.784
247.2000	-49286.4	364.862
247.1000	-65764.7	364.928
247.0000	-67526.5	365.006
246.9000	-59647.9	365.104
246.8000	-57447.9	365.195
246.7000	-56748.4	365.274
246.6000	-67369.2	365.346
246.5000	-84065.6	365.431
246.4000	-83851.4	365.518
246.3000	-84261.9	365.613
246.2000	-76198	365.721
246.1000	-74087.1	365.83
246.0000	-79726	365.934
245.9000	-89874.9	366.036
245.8000	-94246.2	366.149
245.7000	-97946.2	366.282
245.6000	-102933	366.415
245.5000	-95601.8	366.541
245.4000	-90504.3	366.65
245.3000	-97559.2	366.741
245.2000	-88494.5	366.848
245.1000	-87580.2	366.957
245.0000	-89090.9	367.065
244.9000	-90208.2	367.158
244.8000	-88645.9	367.245
244.7000	-88947.1	367.346
244.6000	-97292.3	367.455
244.5000	-96289.3	367.569
244.4000	-89442.9	367.677
244.3000	-88697.5	367.779
244.2000	-82089.8	367.881
244.1000	-82015.2	367.991
244.0000	-77196.6	368.104
243.9000	-66098.8	368.212
243.8000	-63541.8	368.312
243.7000	-55832.6	368.418
243.6000	-55251	368.522
243.5000	-54462.3	368.622
243.4000	-59664.1	368.732
243.3000	-63121.3	368.84
243.2000	-61920.4	368.947
243.1000	-75460.3	369.05
243.0000	-85435.5	369.166
242.9000	-90084.8	369.288
242.8000	-91048.1	369.41
242.7000	-100485	369.536
242.6000	-98655.2	369.661
242.5000	-95179.5	369.78
242.4000	-99585.1	369.905
242.3000	-107333	370.037
242.2000	-111342	370.173
242.1000	-110243	370.301
242.0000	-115469	370.422
241.9000	-114055	370.539
241.8000	-106167	370.656
241.7000	-99784.8	370.778
241.6000	-85529.2	370.902
241.5000	-74633.3	371.015
241.4000	-62110.8	371.119
241.3000	-51416	371.229
241.2000	-53212.6	371.336
241.1000	-54337.1	371.448
241.0000	-54730.1	371.57
240.9000	-60731.5	371.693
240.8000	-59804.5	371.816
240.7000	-62347.9	371.942
240.6000	-65951.2	372.078
240.5000	-71500.3	372.212
240.4000	-73133.7	372.351
240.3000	-67374.5	372.495
240.2000	-78222.3	372.63
240.1000	-81818.4	372.763
240.0000	-81386.5	372.897
239.9000	-82080.9	373.033
239.8000	-78957.3	373.165
239.7000	-74270.2	373.303
239.6000	-69507.3	373.445
239.5000	-67297	373.594
239.4000	-62739.2	373.751
239.3000	-54872.7	373.915
239.2000	-56779.2	374.078
239.1000	-57719.3	374.241
239.0000	-68238.8	374.406
238.9000	-75659.2	374.578
238.8000	-74073.9	374.747
238.7000	-58067.7	374.917
238.6000	-61168.2	375.065
238.5000	-60049.9	375.206
238.4000	-60754.4	375.355
238.3000	-67928.6	375.514
238.2000	-71976.4	375.674
238.1000	-65353.4	375.835
238.0000	-66770.9	375.99
237.9000	-76091.7	376.142
237.8000	-80386.4	376.299
237.7000	-89471.4	376.46
237.6000	-82191	376.627
237.5000	-73143.4	376.79
237.4000	-67181.8	376.945
237.3000	-65653.4	377.099
237.2000	-59773.8	377.259
237.1000	-76368.4	377.415
237.0000	-85524.6	377.575
236.9000	-82719.1	377.743
236.8000	-85711.8	377.91
236.7000	-76443.2	378.079
236.6000	-62074.4	378.247
236.5000	-58677	378.421
236.4000	-62723.8	378.597
236.3000	-63530.6	378.774
236.2000	-64197.7	378.954
236.1000	-63417.4	379.134
236.0000	-68687.8	379.312
235.9000	-92938.2	379.478
235.8000	-108891	379.65
235.7000	-115243	379.817
235.6000	-109665	379.983
235.5000	-112029	380.146
235.4000	-109699	380.315
235.3000	-106174	380.482
235.2000	-103713	380.656
235.1000	-97406.3	380.836
235.0000	-90938.1	381.021
234.9000	-82413.7	381.204
234.8000	-75306.3	381.39
234.7000	-75982.9	381.582
234.6000	-83013	381.766
234.5000	-88305.8	381.953
234.4000	-86387.8	382.137
234.3000	-82581.1	382.316
234.2000	-82107.9	382.494
234.1000	-83507	382.673
234.0000	-86847.9	382.85
233.9000	-94526.2	383.026
233.8000	-80161.7	383.212
233.7000	-64467.8	383.401
233.6000	-65009.9	383.593
233.5000	-71383.1	383.791
233.4000	-69448.4	383.984
233.3000	-71937.2	384.177
233.2000	-78735.4	384.379
233.1000	-76349.3	384.577
233.0000	-67549.6	384.774
232.9000	-69629	384.961
232.8000	-69309.7	385.148
232.7000	-62865.2	385.341
232.6000	-66013.6	385.539
232.5000	-66197	385.745
232.4000	-69193.2	385.94
232.3000	-58307.2	386.138
232.2000	-58911.9	386.33
232.1000	-71364.7	386.526
232.0000	-73536.3	386.722
231.9000	-77959.8	386.914
231.8000	-71983.1	387.098
231.7000	-74045	387.277
231.6000	-77006.1	387.463
231.5000	-76017.6	387.645
231.4000	-93860	387.829
231.3000	-89437.2	388.015
231.2000	-86771.8	388.205
231.1000	-83253	388.395
231.0000	-91380.1	388.583
230.9000	-88577.6	388.778
230.8000	-85234.8	388.966
230.7000	-85493.9	389.164
230.6000	-77680.5	389.368
230.5000	-69653.4	389.578
230.4000	-69516.6	389.783
230.3000	-58605	389.998
230.2000	-58653	390.211
230.1000	-53605.4	390.429
230.0000	-40900.3	390.647
229.9000	-36373.8	390.857
229.8000	-27717.1	391.067
229.7000	-26404.8	391.263
229.6000	-34891.7	391.454
229.5000	-41544.5	391.635
229.4000	-63215.3	391.805
229.3000	-59272.9	391.985
229.2000	-64577	392.159
229.1000	-75771.8	392.33
229.0000	-84158.3	392.507
228.9000	-110858	392.684
228.8000	-116619	392.873
228.7000	-115401	393.076
228.6000	-105644	393.287
228.5000	-95893.8	393.502
228.4000	-94044.7	393.728
228.3000	-79257.6	393.966
228.2000	-63754	394.204
228.1000	-44594.6	394.449
228.0000	-26370.4	394.693
227.9000	-26539	394.927
227.8000	-19696.5	395.163
227.7000	-18425.5	395.409
227.6000	-24438.5	395.646
227.5000	-37630.7	395.869
227.4000	-58695.6	396.086
227.3000	-73480.3	396.307
227.2000	-71197.5	396.529
227.1000	-61756.8	396.752
227.0000	-59982.8	396.974
226.9000	-73243.4	397.179
226.8000	-76796	397.385
226.7000	-63848	397.597
226.6000	-41143.1	397.813
226.5000	-30359.7	398.024
226.4000	-38020.3	398.227
226.3000	-35834	398.429
226.2000	-26095.4	398.641
226.1000	-16417.1	398.86
226.0000	-5855	399.079
225.9000	-2195.45	399.294
225.8000	-23744.4	399.499
225.7000	-27018.4	399.712
225.6000	-41379.8	399.925
225.5000	-48083.8	400.145
225.4000	-61972.2	400.358
225.3000	-79105.7	400.571
225.2000	-70277.3	400.791
225.1000	-81480	401.006
225.0000	-100740	401.22
224.9000	-119916	401.436
224.8000	-117105	401.656
224.7000	-118579	401.873
224.6000	-119055	402.094
224.5000	-121386	402.308
224.4000	-136663	402.52
224.3000	-136720	402.739
224.2000	-120008	402.962
224.1000	-95571.6	403.189
224.0000	-79118.6	403.413
223.9000	-65044.8	403.638
223.8000	-59254.1	403.862
223.7000	-51526.7	404.088
223.6000	-47745.9	404.314
223.5000	-51177.4	404.536
223.4000	-49640.5	404.763
223.3000	-53753.9	404.979
223.2000	-72326.7	405.187
223.1000	-90190.9	405.392
223.0000	-100371	405.598
222.9000	-109194	405.805
222.8000	-109751	406.012
222.7000	-101078	406.218
222.6000	-109057	406.416
222.5000	-117773	406.623
222.4000	-131402	406.826
222.3000	-131246	407.037
222.2000	-130137	407.252
222.1000	-125825	407.466
222.0000	-122845	407.681
221.9000	-140516	407.882
221.8000	-142715	408.093
221.7000	-135817	408.308
221.6000	-119451	408.532
221.5000	-101481	408.757
221.4000	-90014.6	408.971
221.3000	-79039.4	409.186
221.2000	-84687.3	409.397
221.1000	-74691.2	409.618
221.0000	-59494.1	409.837
220.9000	-51979.9	410.05
220.8000	-51517.9	410.261
220.7000	-68021.1	410.462
220.6000	-76940.3	410.674
220.5000	-104654	410.887
220.4000	-99993.8	411.101
220.3000	-77299.5	411.322
220.2000	-79564.3	411.543
220.1000	-69874.7	411.764
220.0000	-61709.2	411.986
219.9000	-45983	412.214
219.8000	-34252.2	412.437
219.7000	-17891.6	412.659
219.6000	-14602	412.874
219.5000	-26190.1	413.086
219.4000	-40092.2	413.299
219.3000	-29962.2	413.518
219.2000	-37778	413.735
219.1000	-40085.6	413.951
219.0000	-35415.5	414.17
218.9000	-19166.2	414.387
218.8000	-2260.73	414.611
218.7000	-158.086	414.827
218.6000	3512.4	415.044
218.5000	9036.57	415.259
218.4000	14824.3	415.478
218.3000	5310.33	415.687
218.2000	6399.4	415.903
218.1000	-7646.71	416.116
218.0000	-14605	416.333
217.9000	-18130.6	416.551
217.8000	-17861	416.763
217.7000	-24047.4	416.976
217.6000	-28277	417.188
217.5000	-29664.4	417.408
217.4000	-25030.9	417.625
217.3000	-19747.6	417.841
217.2000	-14828.4	418.06
217.1000	-27913.4	418.271
217.0000	-23521.4	418.486
216.9000	-840.393	418.708
216.8000	-13098.9	418.919
216.7000	-21315.6	419.126
216.6000	-39476.2	419.337
216.5000	-58866.7	419.548
216.4000	-67031.3	419.751
216.3000	-77270	419.954
216.2000	-85770.4	420.169
216.1000	-106374	420.379
216.0000	-125416	420.587
215.9000	-142390	420.792
215.8000	-153085	420.994
215.7000	-137719	421.213
215.6000	-127566	421.434
215.5000	-104708	421.662
215.4000	-97596.7	421.88
215.3000	-95865.8	422.095
215.2000	-96548.7	422.308
215.1000	-85023.4	422.539
215.0000	-58418.8	422.773
214.9000	-53565.4	422.998
214.8000	-68299.9	423.216
214.7000	-84962.9	423.433
214.6000	-102142	423.652
214.5000	-105127	423.876
214.4000	-122494	424.1
214.3000	-123996	424.325
214.2000	-133855	424.545
214.1000	-145106	424.768
214.0000	-144094	424.992
213.9000	-143295	425.221
213.8000	-137065	425.453
213.7000	-126482	425.689
213.6000	-106079	425.925
213.5000	-79642.8	426.164
213.4000	-71908.8	426.403
213.3000	-72727.1	426.64
213.2000	-80433	426.875
213.1000	-66900.3	427.118
213.0000	-63936	427.358
212.9000	-38718.4	427.606
212.8000	-29222.8	427.842
212.7000	-34055.1	428.076
212.6000	-49782.9	428.306
212.5000	-47194.9	428.543
212.4000	-38420.4	428.787
212.3000	-66074.6	429.016
212.2000	-87112.5	429.25
212.1000	-100321	429.487
212.0000	-114039	429.735
211.9000	-123592	429.988
211.8000	-110251	430.245
211.7000	-89679	430.506
211.6000	-91373.4	430.761
211.5000	-64769.2	431.02
211.4000	-36789.6	431.283
211.3000	-29310.7	431.544
211.2000	-22958	431.799
211.1000	-30571.7	432.052
211.0000	-53567.4	432.304
210.9000	-65124.2	432.559
210.8000	-72531.5	432.816
210.7000	-76785.7	433.082
210.6000	-62685.8	433.352
210.5000	-63934.8	433.62
210.4000	-74020.7	433.888
210.3000	-77453.3	434.161
210.2000	-68470.7	434.434
210.1000	-77204.9	434.705
210.0000	-66435.8	434.979
209.9000	-50527.5	435.257
209.8000	-59408.1	435.524
209.7000	-93007.1	435.789
209.6000	-123112	436.05
209.5000	-118453	436.327
209.4000	-95623.7	436.607
209.3000	-77508.2	436.885
209.2000	-82709.3	437.16
209.1000	-108815	437.428
209.0000	-126648	437.698
208.9000	-123867	437.973
208.8000	-117076	438.247
208.7000	-99493.2	438.521
208.6000	-129745	438.79
208.5000	-152821	439.06
208.4000	-173015	439.332
208.3000	-181090	439.611
208.2000	-173245	439.896
208.1000	-175408	440.178
208.0000	-154958	440.465
207.9000	-156986	440.748
207.8000	-146308	441.034
207.7000	-128210	441.319
207.6000	-122069	441.604
207.5000	-105424	441.888
207.4000	-103933	442.164
207.3000	-100852	442.439
207.2000	-98856.1	442.715
207.1000	-100934	442.99
207.0000	-107063	443.261
206.9000	-104460	443.533
206.8000	-102264	443.809
206.7000	-105211	444.076
206.6000	-106119	444.35
206.5000	-104303	444.627
206.4000	-125397	444.898
206.3000	-132448	445.175
206.2000	-148459	445.444
206.1000	-154636	445.713
206.0000	-169736	445.975
205.9000	-172056	446.244
205.8000	-169431	446.514
205.7000	-167332	446.781
205.6000	-125390	447.058
205.5000	-94841.9	447.334
205.4000	-68620.6	447.608
205.3000	-52346	447.884
205.2000	-28487.2	448.165
205.1000	-29495.6	448.445
205.0000	-24543.5	448.722
204.9000	4129.88	449.006
204.8000	15835	449.287
204.7000	13881.1	449.566
204.6000	-2875.36	449.838
204.5000	-6191.12	450.12
204.4000	-22148.8	450.393
204.3000	-24640.3	450.669
204.2000	-34281.2	450.94
204.1000	-52508.7	451.212
204.0000	-79979.2	451.485
203.9000	-97147.7	451.757
203.8000	-102366	452.031
203.7000	-105320	452.311
203.6000	-100934	452.593
203.5000	-106404	452.874
203.4000	-101277	453.157
203.3000	-91983.1	453.446
203.2000	-87832.6	453.73
203.1000	-99368.9	454.013
203.0000	-95850.3	454.303
202.9000	-92560.5	454.587
202.8000	-89064.2	454.868
202.7000	-71708.5	455.155
202.6000	-57326.9	455.441
202.5000	-31538.5	455.721
202.4000	1994.03	456.007
202.3000	18707.2	456.289
202.2000	37232	456.57
202.1000	51251.5	456.852
202.0000	52245.6	457.135
201.9000	53506.6	457.419
201.8000	49047.2	457.702
201.7000	56302.5	457.998
201.6000	32942.6	458.287
201.5000	35685.4	458.584
201.4000	16667.2	458.877
201.3000	17377	459.177
201.2000	12717.3	459.48
201.1000	1984.49	459.781
201.0000	14502.5	460.089
200.9000	9902.61	460.395
200.8000	-666.915	460.703
200.7000	-18462.8	461.013
200.6000	-25248	461.332
200.5000	-57536.4	461.651
200.4000	-82884.4	461.977
200.3000	-69651.4	462.316
200.2000	-64739.1	462.657
200.1000	-88394.8	462.985
200.0000	-76966.1	463.32
199.9000	-71620.2	463.651
199.8000	-70229.4	463.974
199.7000	-55432.3	464.284
199.6000	-28622	464.59
199.5000	-24584.7	464.891
199.4000	-31762.6	465.184
199.3000	-20705.3	465.483
199.2000	-32524.2	465.782
199.1000	-71928.5	466.08
199.0000	-84943.4	466.389
198.9000	-93386.4	466.71
198.8000	-109273	467.04
198.7000	-103415	467.381
198.6000	-119524	467.724
198.5000	-145489	468.075
198.4000	-159182	468.433
198.3000	-133870	468.805
198.2000	-118979	469.192
198.1000	-89484	469.603
198.0000	-88072.1	470.031
197.9000	-79544.5	470.474
197.8000	-42269.1	470.93
197.7000	-16424.8	471.389
197.6000	5887.74	471.843
197.5000	38817.7	472.29
197.4000	28031.5	472.7
197.3000	-691.149	473.065
197.2000	-17752.8	473.385
197.1000	-34822.2	473.663
197.0000	-46730.7	473.919
196.9000	-53028.9	474.158
196.8000	-69007	474.388
196.7000	-127029	474.617
196.6000	-130027	474.874
196.5000	-128125	475.166
196.4000	-111058	475.504
196.3000	-108093	475.881
196.2000	-125516	476.298
196.1000	-127779	476.766
196.0000	-146832	477.287
195.9000	-122889	477.886
195.8000	-105676	478.578
195.7000	-93158.5	479.369
195.6000	-93885.2	480.251
195.5000	-89234.7	481.213
195.4000	-89812	482.225
195.3000	-121528	483.242
195.2000	-120364	484.248
195.1000	-115068	485.183
195.0000	-125926	485.974
194.9000	-124481	486.582
194.8000	-124489	486.991
194.7000	-138652	487.224
194.6000	-146204	487.323
194.5000	-123500	487.337
194.4000	-96054.3	487.307
194.3000	-113918	487.263
194.2000	-142732	487.28
194.1000	-153977	487.427
194.0000	-183471	487.741
193.9000	-176882	488.254
193.8000	-132482	488.984
193.7000	-97804.9	489.961
193.6000	-113810	491.192
193.5000	-98509.1	492.747
193.4000	-54897.8	494.644
193.3000	-13898.3	496.828
193.2000	23282.8	499.225
193.1000	34205.4	501.739
193.0000	-6376.56	504.256
192.9000	-32736.8	506.636
192.8000	-34158.1	508.732
192.7000	-50594.8	510.349
192.6000	-74120.4	511.362
192.5000	-91716.3	511.781
192.4000	-120501	511.684
192.3000	-113998	511.191
192.2000	-92962	510.419
192.1000	-81820.5	509.504
192.0000	-83808	508.622
191.9000	-53478.8	507.974
191.8000	-5607.12	507.736
191.7000	36583.5	507.986
191.6000	49800.2	508.739
191.5000	62479.7	509.995
191.4000	48866.9	511.764
191.3000	31097.8	514.084
191.2000	23934	516.961
191.1000	7166.25	520.302
191.0000	-18933.9	523.971
190.9000	-59218	527.792
190.8000	-66497.8	531.592
190.7000	-48524.6	535.191
190.6000	-20736.1	538.373
190.5000	-24451.4	540.884
190.4000	77624.2	542.56
190.3000	113067	543.344
190.2000	153666	543.376
190.1000	181274	542.838
190.0000	206953	541.964

##### Extended Information
[Comments]
Sample name	Doxer_0.8uM
Comment
User
Division
Company	CSIR-IMTECH

[Detailed Information]
Creation date	4/8/2024 4:11 PM

Data array type	Linear data array * 2
Horizontal axis	Wavelength [nm]
Vertical axis(1)	Mol. Ellip.
Vertical axis(2)	HT [V]
Start	350 nm
End	190 nm
Data interval	0.1 nm
Data points	1601    

[Measurement Information]
Instrument Name	JASCO CD
Model Name	J-815
Serial No.	B063061168

Accessory	PTC-423S
Accessory S/N	C013945-01
  Temperature	37.22 C
  Control Sonsor	Cell
  Monitor Sensor	Cell
  Start Mode	Start immediately
  Cell Length	10 mm

Measurement date	4/8/2024 4:10 PM

Photometric Mode	CD, HT
Measure Range	350 - 190 nm
Data pitch	0.1 nm
Sensitivity	Standard
D.I.T.	1 sec
Bandwidth	1.00 nm
Start Mode	Immediately
Scanning Speed	50 nm/min
Baseline Correction	None
Shutter Control	Auto
CD Detector	PMT
PMT Voltage	Auto
Accumulations	3
Concentration	0.8 umol/L

