TITLE	Seo_0.6uM
DATA TYPE	
ORIGIN	JASCO
OWNER	
DATE	24/04/08
TIME	15:19:49
SPECTROMETER/DATA SYSTEM	
LOCALE	1033
RESOLUTION	
DELTAX	-0.1
XUNITS	NANOMETERS
YUNITS	Mol. Ellip.
Y2UNITS	HT [V]
FIRSTX	  350.0000
LASTX	  190.0000
NPOINTS	    1601
FIRSTY	-183030.31250
MAXY	129596.34375
MINY	-357932.15625
XYDATA
350.0000	-183030	500.53
349.9000	-124480	499.955
349.8000	-106549	499.084
349.7000	-142320	498.19
349.6000	-170313	497.544
349.5000	-132705	496.991
349.4000	-82559.5	496.11
349.3000	-53812.8	495.482
349.2000	-31543.1	494.956
349.1000	-22178.1	494.113
349.0000	7555.02	493.491
348.9000	52224.4	492.949
348.8000	85822.8	492.1
348.7000	87566.5	491.232
348.6000	48267.2	490.608
348.5000	29909.1	490.075
348.4000	962.372	489.192
348.3000	-18066.9	488.534
348.2000	-91933.5	487.943
348.1000	-80846.9	487.07
348.0000	-34058.9	486.418
347.9000	1688.86	485.844
347.8000	3335.45	484.973
347.7000	23782.9	484.094
347.6000	55982.7	483.469
347.5000	76328.4	482.955
347.4000	109229	482.152
347.3000	129596	481.558
347.2000	48727.6	481.034
347.1000	-34066.9	480.262
347.0000	-49428.6	479.718
346.9000	-82366.2	479.252
346.8000	-134624	478.496
346.7000	-220025	477.714
346.6000	-275859	477.136
346.5000	-341303	476.37
346.4000	-357932	475.595
346.3000	-317979	474.997
346.2000	-264473	474.206
346.1000	-240128	473.392
346.0000	-216998	472.79
345.9000	-195235	472.273
345.8000	-182428	471.472
345.7000	-146650	470.885
345.6000	-92682.9	470.39
345.5000	-89289.6	469.672
345.4000	-76954.6	469.161
345.3000	-79205.4	468.737
345.2000	-60842	468.048
345.1000	-48845.5	467.347
345.0000	-16079.8	466.844
344.9000	38456.9	466.194
344.8000	45197.6	465.51
344.7000	37795.6	464.975
344.6000	33260.8	464.287
344.5000	28032.3	463.575
344.4000	-4556.05	463.04
344.3000	-15261.8	462.337
344.2000	-21974.3	461.621
344.1000	-60713.1	461.073
344.0000	-84955.6	460.402
343.9000	-73941.7	459.738
343.8000	-94622.8	459.246
343.7000	-103641	458.828
343.6000	-89883.4	458.172
343.5000	-71098.8	457.712
343.4000	-51456	457.333
343.3000	-28909.4	456.717
343.2000	7474.48	456.261
343.1000	-8501.47	455.849
343.0000	7186.6	455.244
342.9000	-6662.11	454.614
342.8000	-15384.7	454.148
342.7000	-21558.2	453.531
342.6000	-19308.9	452.901
342.5000	-12465.5	452.435
342.4000	-27767.6	451.828
342.3000	-35017.2	451.213
342.2000	-53176.8	450.734
342.1000	-70951.1	450.139
342.0000	-65121.2	449.552
341.9000	-74692.4	449.136
341.8000	-81966.6	448.579
341.7000	-106760	448.016
341.6000	-128611	447.611
341.5000	-141622	447.11
341.4000	-130376	446.604
341.3000	-94287.7	446.23
341.2000	-103744	445.664
341.1000	-98075	445.081
341.0000	-133398	444.637
340.9000	-146114	444.056
340.8000	-129355	443.464
340.7000	-112731	442.994
340.6000	-118092	442.404
340.5000	-193512	441.795
340.4000	-231309	441.361
340.3000	-206329	440.823
340.2000	-191910	440.283
340.1000	-173470	439.899
340.0000	-201626	439.422
339.9000	-208293	438.952
339.8000	-221575	438.603
339.7000	-187770	438.167
339.6000	-137118	437.726
339.5000	-136857	437.413
339.4000	-119196	436.968
339.3000	-114991	436.494
339.2000	-77185.9	435.955
339.1000	-49674.8	435.456
339.0000	-40571	434.94
338.9000	-56173.5	434.362
338.8000	-92938.5	433.821
338.7000	-113467	433.28
338.6000	-130876	432.698
338.5000	-122685	432.192
338.4000	-126840	431.829
338.3000	-131433	431.388
338.2000	-129697	430.951
338.1000	-88661.3	430.643
338.0000	-29653.9	430.221
337.9000	15071.3	429.791
337.8000	32408.2	429.494
337.7000	21939.6	429.098
337.6000	-20034.7	428.675
337.5000	-50153.7	428.345
337.4000	-56032.1	427.923
337.3000	-47972.4	427.482
337.2000	-55477.3	426.992
337.1000	-52394.9	426.558
337.0000	-52746.5	426.119
336.9000	-49160	425.639
336.8000	-28641.5	425.222
336.7000	-10442.6	424.805
336.6000	-5379.69	424.353
336.5000	-10886.6	423.952
336.4000	-40530.9	423.673
336.3000	-62782.9	423.281
336.2000	-66613.4	422.881
336.1000	-79787.3	422.586
336.0000	-97546.7	422.199
335.9000	-85115.5	421.795
335.8000	-75278.9	421.34
335.7000	-61831.3	420.923
335.6000	-45626.1	420.499
335.5000	-31912	420.063
335.4000	-18054.8	419.683
335.3000	-2255.37	419.304
335.2000	26820.8	418.901
335.1000	31013.4	418.553
335.0000	25716.7	418.319
334.9000	13400	417.994
334.8000	11052.8	417.665
334.7000	3867.65	417.281
334.6000	-21674.9	416.941
334.5000	-37532	416.587
334.4000	-42088.9	416.191
334.3000	-41486.6	415.822
334.2000	-20457.6	415.44
334.1000	9438.29	415.013
334.0000	16958	414.624
333.9000	7937.33	414.339
333.8000	36833.4	413.993
333.7000	31756	413.634
333.6000	9212.8	413.238
333.5000	-10225.9	412.9
333.4000	-50371.4	412.561
333.3000	-98007.5	412.205
333.2000	-134407	411.902
333.1000	-150486	411.594
333.0000	-171438	411.271
332.9000	-186410	410.979
332.8000	-177175	410.633
332.7000	-175950	410.317
332.6000	-162131	409.992
332.5000	-130446	409.645
332.4000	-105252	409.339
332.3000	-84577.9	409.029
332.2000	-62890.2	408.667
332.1000	-37919.1	408.331
332.0000	-23830.8	407.995
331.9000	-20075.4	407.718
331.8000	-15742.3	407.441
331.7000	-20751.6	407.124
331.6000	-43894.4	406.829
331.5000	-62713.1	406.411
331.4000	-71237	406.078
331.3000	-92086.2	405.78
331.2000	-106997	405.442
331.1000	-103623	405.136
331.0000	-101394	404.821
330.9000	-125326	404.499
330.8000	-135031	404.22
330.7000	-130322	403.888
330.6000	-127365	403.597
330.5000	-128170	403.309
330.4000	-116590	403.037
330.3000	-122626	402.807
330.2000	-116818	402.429
330.1000	-88126.9	402.116
330.0000	-69739.1	401.824
329.9000	-78428.3	401.537
329.8000	-80461.6	401.296
329.7000	-72773.7	400.926
329.6000	-63176.3	400.605
329.5000	-39730.4	400.303
329.4000	-51724.7	400.01
329.3000	-65805.2	399.767
329.2000	-66922.5	399.398
329.1000	-55400.9	399.095
329.0000	-36034.8	398.826
328.9000	-24664.6	398.576
328.8000	-18523.6	398.374
328.7000	-24012.2	398.033
328.6000	-13401.7	397.752
328.5000	-1037.89	397.498
328.4000	-1723.17	397.265
328.3000	-13690.8	397.072
328.2000	-25650	396.736
328.1000	-34954.9	396.442
328.0000	-36905	396.168
327.9000	-52572.9	395.924
327.8000	-77600	395.733
327.7000	-76069.9	395.444
327.6000	-69104	395.205
327.5000	-53276.5	394.987
327.4000	-45358.2	394.734
327.3000	-59433.9	394.529
327.2000	-80193.9	394.222
327.1000	-79208.3	393.964
327.0000	-49241.1	393.722
326.9000	-46663.9	393.453
326.8000	-45803.9	393.213
326.7000	-58633.2	392.879
326.6000	-49412	392.633
326.5000	-26646.5	392.425
326.4000	-16967	392.184
326.3000	-10580.4	391.973
326.2000	-16126.5	391.68
326.1000	-22516.7	391.448
326.0000	-14267.3	391.16
325.9000	-5171.66	390.94
325.8000	-15727.2	390.75
325.7000	-42905.1	390.516
325.6000	-49947.1	390.356
325.5000	-35430.5	390.051
325.4000	-16975.9	389.796
325.3000	3474.65	389.565
325.2000	3020.27	389.343
325.1000	-3610.35	389.136
325.0000	-10852	388.806
324.9000	-11189	388.504
324.8000	-3494.21	388.176
324.7000	-72.5132	387.975
324.6000	-17907.7	387.837
324.5000	-40283.2	387.556
324.4000	-55424.6	387.312
324.3000	-67888	387.083
324.2000	-78018.1	386.936
324.1000	-96227.3	386.679
324.0000	-94822	386.449
323.9000	-105072	386.225
323.8000	-122594	386.002
323.7000	-122880	385.876
323.6000	-115183	385.59
323.5000	-110419	385.299
323.4000	-94507.8	385.01
323.3000	-78593.6	384.833
323.2000	-58320.7	384.706
323.1000	-47645.7	384.413
323.0000	-33539.1	384.112
322.9000	-24316.2	383.807
322.8000	-34403.8	383.645
322.7000	-37075.2	383.388
322.6000	-49569.1	383.117
322.5000	-56716	382.839
322.4000	-69060.4	382.555
322.3000	-101336	382.37
322.2000	-102605	382.091
322.1000	-95040.3	381.797
322.0000	-96734.7	381.494
321.9000	-103624	381.307
321.8000	-97541.9	380.992
321.7000	-104416	380.671
321.6000	-108779	380.352
321.5000	-96090.3	380.059
321.4000	-81021.6	379.891
321.3000	-96424.6	379.648
321.2000	-128481	379.411
321.1000	-131894	379.181
321.0000	-126287	379.105
320.9000	-109809	378.966
320.8000	-104378	378.823
320.7000	-99631.9	378.682
320.6000	-105332	378.537
320.5000	-122327	378.485
320.4000	-102294	378.336
320.3000	-84999.9	378.176
320.2000	-78697.3	378.018
320.1000	-90024.9	377.956
320.0000	-89750.1	377.775
319.9000	-77913.2	377.581
319.8000	-73107.4	377.397
319.7000	-53748.2	377.212
319.6000	-39240.3	376.968
319.5000	-47425.6	376.764
319.4000	-53664.3	376.552
319.3000	-58092.9	376.328
319.2000	-59077.9	376.215
319.1000	-64199.8	376.007
319.0000	-84973.8	375.769
318.9000	-100219	375.535
318.8000	-123481	375.415
318.7000	-129074	375.204
318.6000	-137690	374.986
318.5000	-136453	374.795
318.4000	-127653	374.607
318.3000	-111907	374.37
318.2000	-103328	374.188
318.1000	-93129.9	373.999
318.0000	-79600.6	373.816
317.9000	-81627.5	373.741
317.8000	-77155.3	373.581
317.7000	-86753.1	373.391
317.6000	-104478	373.192
317.5000	-127844	373.101
317.4000	-148524	372.915
317.3000	-159769	372.719
317.2000	-169417	372.537
317.1000	-166034	372.349
317.0000	-166294	372.111
316.9000	-158633	371.924
316.8000	-142997	371.76
316.7000	-138899	371.588
316.6000	-131222	371.394
316.5000	-135644	371.251
316.4000	-135452	371.089
316.3000	-128021	370.907
316.2000	-113435	370.706
316.1000	-115574	370.552
316.0000	-121829	370.385
315.9000	-125851	370.189
315.8000	-123928	370.085
315.7000	-109205	369.915
315.6000	-103388	369.743
315.5000	-107927	369.564
315.4000	-119981	369.47
315.3000	-116081	369.29
315.2000	-108670	369.101
315.1000	-106673	368.93
315.0000	-100263	368.759
314.9000	-106146	368.567
314.8000	-91001.5	368.412
314.7000	-77899.3	368.242
314.6000	-65781.8	368.064
314.5000	-62341.4	367.891
314.4000	-64923.4	367.766
314.3000	-58373.5	367.616
314.2000	-53786.7	367.461
314.1000	-45729	367.267
314.0000	-52136	367.104
313.9000	-67683.9	366.952
313.8000	-64654.2	366.807
313.7000	-75465	366.586
313.6000	-92446	366.388
313.5000	-87568.1	366.207
313.4000	-98919.3	366.025
313.3000	-105855	365.834
313.2000	-113774	365.68
313.1000	-113746	365.518
313.0000	-119967	365.35
312.9000	-125302	365.191
312.8000	-115942	365.082
312.7000	-111031	364.95
312.6000	-117175	364.81
312.5000	-105602	364.634
312.4000	-104096	364.477
312.3000	-100094	364.317
312.2000	-112512	364.15
312.1000	-108711	363.924
312.0000	-95842.8	363.72
311.9000	-103856	363.508
311.8000	-95745.3	363.243
311.7000	-83718.3	363.045
311.6000	-81803.3	362.861
311.5000	-84500.6	362.692
311.4000	-77736.7	362.462
311.3000	-77077.5	362.314
311.2000	-94869.9	362.189
311.1000	-95508.4	362.092
311.0000	-99146.3	361.974
310.9000	-96546.9	361.884
310.8000	-94436.8	361.795
310.7000	-110806	361.71
310.6000	-115249	361.581
310.5000	-117038	361.474
310.4000	-104056	361.378
310.3000	-114452	361.28
310.2000	-109720	361.184
310.1000	-120480	361.111
310.0000	-131735	361.031
309.9000	-124965	360.959
309.8000	-126060	360.885
309.7000	-126683	360.812
309.6000	-134015	360.75
309.5000	-134781	360.615
309.4000	-141278	360.51
309.3000	-144255	360.396
309.2000	-133194	360.298
309.1000	-113233	360.11
309.0000	-102831	359.962
308.9000	-87493.7	359.835
308.8000	-77390.7	359.712
308.7000	-66467.6	359.599
308.6000	-67501.4	359.507
308.5000	-63025.5	359.407
308.4000	-67431.8	359.257
308.3000	-91094.1	359.166
308.2000	-102972	359.08
308.1000	-101269	359.017
308.0000	-117835	358.886
307.9000	-125467	358.78
307.8000	-129219	358.659
307.7000	-119834	358.561
307.6000	-118073	358.429
307.5000	-116452	358.277
307.4000	-122009	358.146
307.3000	-135469	357.987
307.2000	-148381	357.872
307.1000	-157494	357.755
307.0000	-146421	357.668
306.9000	-143317	357.542
306.8000	-147739	357.467
306.7000	-145644	357.408
306.6000	-136678	357.306
306.5000	-114745	357.225
306.4000	-97151.8	357.123
306.3000	-83478.6	357.044
306.2000	-88684.7	356.897
306.1000	-88563.8	356.78
306.0000	-83506.9	356.641
305.9000	-84612.1	356.533
305.8000	-78640.2	356.446
305.7000	-74657.3	356.344
305.6000	-83100.8	356.264
305.5000	-86519.8	356.156
305.4000	-70573	356.1
305.3000	-77910.8	356.021
305.2000	-92603.3	355.966
305.1000	-101047	355.873
305.0000	-101944	355.756
304.9000	-114475	355.673
304.8000	-114803	355.544
304.7000	-101513	355.443
304.6000	-97189.3	355.318
304.5000	-82628.5	355.203
304.4000	-66391.3	355.103
304.3000	-52924.2	354.997
304.2000	-58189.3	354.935
304.1000	-59446.7	354.853
304.0000	-67017.9	354.807
303.9000	-72410.9	354.738
303.8000	-85368.6	354.65
303.7000	-91137.5	354.59
303.6000	-106309	354.488
303.5000	-123155	354.411
303.4000	-135461	354.301
303.3000	-142822	354.183
303.2000	-147606	354.076
303.1000	-159048	353.981
303.0000	-158525	353.929
302.9000	-163504	353.85
302.8000	-175999	353.768
302.7000	-169525	353.703
302.6000	-170806	353.626
302.5000	-158824	353.588
302.4000	-162071	353.524
302.3000	-155466	353.428
302.2000	-160497	353.334
302.1000	-168660	353.228
302.0000	-157816	353.163
301.9000	-158618	353.075
301.8000	-152552	352.994
301.7000	-148616	352.928
301.6000	-141752	352.844
301.5000	-129397	352.804
301.4000	-114383	352.752
301.3000	-103274	352.679
301.2000	-93191.1	352.622
301.1000	-86716.3	352.556
301.0000	-86065.1	352.52
300.9000	-96247.5	352.44
300.8000	-97922.4	352.357
300.7000	-107814	352.283
300.6000	-125414	352.196
300.5000	-136099	352.128
300.4000	-135267	352.073
300.3000	-131532	351.996
300.2000	-130089	351.923
300.1000	-130338	351.861
300.0000	-134218	351.791
299.9000	-144471	351.73
299.8000	-134233	351.673
299.7000	-137028	351.598
299.6000	-138725	351.53
299.5000	-151534	351.463
299.4000	-165194	351.409
299.3000	-161098	351.339
299.2000	-163452	351.282
299.1000	-163754	351.24
299.0000	-161569	351.173
298.9000	-162347	351.127
298.8000	-171374	351.089
298.7000	-168108	351.033
298.6000	-162335	350.982
298.5000	-165633	350.925
298.4000	-163849	350.862
298.3000	-165309	350.804
298.2000	-164711	350.739
298.1000	-169951	350.673
298.0000	-159474	350.613
297.9000	-150193	350.558
297.8000	-145337	350.484
297.7000	-142882	350.428
297.6000	-140232	350.384
297.5000	-136028	350.315
297.4000	-131996	350.269
297.3000	-124963	350.226
297.2000	-131994	350.154
297.1000	-154127	350.098
297.0000	-176591	350.042
296.9000	-184684	349.972
296.8000	-186784	349.919
296.7000	-178916	349.871
296.6000	-175626	349.835
296.5000	-189472	349.783
296.4000	-192272	349.743
296.3000	-161138	349.722
296.2000	-143613	349.684
296.1000	-137221	349.642
296.0000	-135944	349.607
295.9000	-145862	349.564
295.8000	-149897	349.494
295.7000	-148481	349.45
295.6000	-136827	349.407
295.5000	-140221	349.339
295.4000	-133065	349.268
295.3000	-129522	349.225
295.2000	-110281	349.174
295.1000	-91714.3	349.11
295.0000	-88784.1	349.075
294.9000	-83514.7	349.019
294.8000	-82626	348.955
294.7000	-92024.2	348.915
294.6000	-103076	348.873
294.5000	-101537	348.824
294.4000	-111288	348.786
294.3000	-124997	348.749
294.2000	-119757	348.695
294.1000	-120790	348.657
294.0000	-124786	348.628
293.9000	-131435	348.571
293.8000	-129940	348.537
293.7000	-147036	348.504
293.6000	-142410	348.445
293.5000	-144270	348.371
293.4000	-157939	348.325
293.3000	-167051	348.275
293.2000	-164005	348.22
293.1000	-154939	348.195
293.0000	-155058	348.149
292.9000	-152648	348.097
292.8000	-162414	348.074
292.7000	-171817	348.051
292.6000	-185244	348.015
292.5000	-186989	347.96
292.4000	-193208	347.925
292.3000	-196164	347.868
292.2000	-195872	347.812
292.1000	-208692	347.776
292.0000	-217695	347.724
291.9000	-218241	347.663
291.8000	-205111	347.613
291.7000	-194990	347.591
291.6000	-193962	347.546
291.5000	-200727	347.492
291.4000	-207318	347.462
291.3000	-199685	347.409
291.2000	-190814	347.336
291.1000	-186021	347.267
291.0000	-176815	347.218
290.9000	-171593	347.141
290.8000	-175617	347.039
290.7000	-170509	346.934
290.6000	-167145	346.815
290.5000	-171040	346.673
290.4000	-171417	346.525
290.3000	-167951	346.393
290.2000	-161171	346.24
290.1000	-158159	346.071
290.0000	-147042	345.927
289.9000	-147583	345.827
289.8000	-158376	345.738
289.7000	-157101	345.681
289.6000	-137451	345.669
289.5000	-137340	345.695
289.4000	-145883	345.743
289.3000	-153543	345.819
289.2000	-162321	345.918
289.1000	-159431	346.043
289.0000	-154840	346.154
288.9000	-144193	346.262
288.8000	-149470	346.351
288.7000	-140639	346.433
288.6000	-129764	346.497
288.5000	-131043	346.542
288.4000	-123394	346.573
288.3000	-136915	346.586
288.2000	-156851	346.574
288.1000	-150970	346.566
288.0000	-153672	346.548
287.9000	-157946	346.513
287.8000	-162961	346.489
287.7000	-153450	346.463
287.6000	-152379	346.442
287.5000	-130997	346.406
287.4000	-106120	346.388
287.3000	-91133.7	346.375
287.2000	-90463.9	346.355
287.1000	-94947.1	346.34
287.0000	-106039	346.298
286.9000	-123052	346.272
286.8000	-123897	346.259
286.7000	-124550	346.243
286.6000	-122443	346.225
286.5000	-117459	346.219
286.4000	-114969	346.213
286.3000	-115039	346.21
286.2000	-110176	346.207
286.1000	-102139	346.201
286.0000	-98982.7	346.205
285.9000	-104523	346.2
285.8000	-119003	346.2
285.7000	-131652	346.165
285.6000	-143084	346.14
285.5000	-147589	346.138
285.4000	-137390	346.136
285.3000	-146416	346.133
285.2000	-161032	346.097
285.1000	-175089	346.07
285.0000	-184459	346.068
284.9000	-186835	346.06
284.8000	-193581	346.057
284.7000	-205283	346.025
284.6000	-217298	346.001
284.5000	-228328	346
284.4000	-225507	346.004
284.3000	-218464	346.017
284.2000	-205426	346.002
284.1000	-209120	345.993
284.0000	-209018	345.978
283.9000	-201394	345.988
283.8000	-203240	346.003
283.7000	-197410	345.993
283.6000	-193553	345.983
283.5000	-191987	345.968
283.4000	-187991	345.959
283.3000	-181524	345.969
283.2000	-172938	345.985
283.1000	-161688	345.991
283.0000	-145887	345.983
282.9000	-148376	345.978
282.8000	-141628	345.973
282.7000	-139060	345.984
282.6000	-147244	345.999
282.5000	-156960	345.999
282.4000	-153989	345.994
282.3000	-150420	345.986
282.2000	-149240	345.981
282.1000	-145025	345.997
282.0000	-146842	346.01
281.9000	-158427	346.016
281.8000	-162907	346.013
281.7000	-155920	346.01
281.6000	-144163	346.01
281.5000	-149994	346.007
281.4000	-162087	346.023
281.3000	-168835	346.026
281.2000	-173699	346.022
281.1000	-168938	346.017
281.0000	-168912	346.013
280.9000	-163766	346.007
280.8000	-172463	345.996
280.7000	-180123	345.988
280.6000	-181068	345.988
280.5000	-177262	345.979
280.4000	-174108	345.97
280.3000	-170788	345.957
280.2000	-160943	345.943
280.1000	-152439	345.933
280.0000	-150567	345.925
279.9000	-146331	345.916
279.8000	-149953	345.893
279.7000	-144854	345.888
279.6000	-144664	345.884
279.5000	-143173	345.884
279.4000	-144601	345.885
279.3000	-142590	345.884
279.2000	-154092	345.882
279.1000	-158494	345.883
279.0000	-152339	345.888
278.9000	-140694	345.886
278.8000	-129658	345.899
278.7000	-134980	345.906
278.6000	-147388	345.918
278.5000	-157952	345.93
278.4000	-149531	345.947
278.3000	-133553	345.965
278.2000	-126564	345.986
278.1000	-131453	346
278.0000	-145562	345.998
277.9000	-134799	345.995
277.8000	-119148	345.994
277.7000	-105568	345.992
277.6000	-119746	346.003
277.5000	-134397	346.014
277.4000	-149495	346.027
277.3000	-160758	346.043
277.2000	-167473	346.062
277.1000	-186351	346.078
277.0000	-213258	346.093
276.9000	-220367	346.114
276.8000	-220143	346.124
276.7000	-213146	346.126
276.6000	-212048	346.126
276.5000	-205163	346.127
276.4000	-189542	346.127
276.3000	-162014	346.133
276.2000	-122883	346.141
276.1000	-114561	346.141
276.0000	-115674	346.155
275.9000	-119439	346.171
275.8000	-134721	346.186
275.7000	-145144	346.208
275.6000	-164637	346.232
275.5000	-182070	346.254
275.4000	-196020	346.28
275.3000	-198453	346.307
275.2000	-190942	346.322
275.1000	-195426	346.336
275.0000	-183681	346.353
274.9000	-167635	346.371
274.8000	-154214	346.381
274.7000	-150452	346.389
274.6000	-160245	346.398
274.5000	-161371	346.409
274.4000	-163224	346.426
274.3000	-162713	346.446
274.2000	-163305	346.464
274.1000	-166675	346.483
274.0000	-165651	346.5
273.9000	-165355	346.523
273.8000	-167583	346.546
273.7000	-177975	346.567
273.6000	-182926	346.59
273.5000	-166874	346.612
273.4000	-150731	346.631
273.3000	-133783	346.652
273.2000	-131967	346.67
273.1000	-137016	346.685
273.0000	-126821	346.698
272.9000	-120765	346.71
272.8000	-123065	346.719
272.7000	-139249	346.729
272.6000	-152614	346.741
272.5000	-168294	346.755
272.4000	-176253	346.77
272.3000	-164410	346.793
272.2000	-153269	346.822
272.1000	-155765	346.844
272.0000	-149826	346.869
271.9000	-138905	346.889
271.8000	-140188	346.906
271.7000	-134382	346.922
271.6000	-136357	346.936
271.5000	-135096	346.946
271.4000	-148072	346.952
271.3000	-155342	346.955
271.2000	-152480	346.958
271.1000	-155433	346.965
271.0000	-134735	346.977
270.9000	-117518	346.974
270.8000	-110009	346.964
270.7000	-104484	346.957
270.6000	-102509	346.945
270.5000	-97176.6	346.932
270.4000	-93638.7	346.923
270.3000	-98031.4	346.915
270.2000	-108653	346.905
270.1000	-122034	346.901
270.0000	-131037	346.901
269.9000	-142818	346.905
269.8000	-156772	346.916
269.7000	-160492	346.936
269.6000	-158330	346.956
269.5000	-148136	346.976
269.4000	-143808	346.988
269.3000	-143971	347.008
269.2000	-148690	347.039
269.1000	-153517	347.078
269.0000	-143671	347.116
268.9000	-115137	347.166
268.8000	-103470	347.215
268.7000	-108422	347.267
268.6000	-117216	347.32
268.5000	-125964	347.382
268.4000	-122153	347.443
268.3000	-108145	347.486
268.2000	-100081	347.527
268.1000	-109217	347.55
268.0000	-120406	347.582
267.9000	-125453	347.612
267.8000	-119395	347.657
267.7000	-106982	347.7
267.6000	-102861	347.746
267.5000	-99618.3	347.797
267.4000	-103980	347.844
267.3000	-111988	347.902
267.2000	-113785	347.951
267.1000	-115161	348.015
267.0000	-124595	348.07
266.9000	-118124	348.135
266.8000	-114379	348.193
266.7000	-140657	348.24
266.6000	-162619	348.297
266.5000	-157474	348.354
266.4000	-156968	348.423
266.3000	-165155	348.479
266.2000	-155986	348.542
266.1000	-152291	348.6
266.0000	-156128	348.642
265.9000	-133253	348.701
265.8000	-93429	348.764
265.7000	-77464.8	348.842
265.6000	-77876.4	348.91
265.5000	-72877.3	348.973
265.4000	-69755.5	349.017
265.3000	-84814.4	349.053
265.2000	-100340	349.106
265.1000	-108267	349.16
265.0000	-126616	349.21
264.9000	-146863	349.252
264.8000	-143681	349.285
264.7000	-146174	349.326
264.6000	-146845	349.384
264.5000	-133507	349.461
264.4000	-115025	349.533
264.3000	-102681	349.592
264.2000	-92589.9	349.662
264.1000	-86792.4	349.739
264.0000	-82326.2	349.83
263.9000	-93798.4	349.92
263.8000	-93007.4	350
263.7000	-88997.5	350.075
263.6000	-94378.6	350.153
263.5000	-94819.8	350.243
263.4000	-101285	350.34
263.3000	-97528.5	350.421
263.2000	-99324.3	350.495
263.1000	-94990	350.57
263.0000	-98181.1	350.651
262.9000	-100873	350.728
262.8000	-107660	350.801
262.7000	-117126	350.873
262.6000	-133322	350.941
262.5000	-145496	351.019
262.4000	-152600	351.093
262.3000	-157130	351.172
262.2000	-146496	351.255
262.1000	-134716	351.353
262.0000	-128492	351.439
261.9000	-108833	351.526
261.8000	-88514.7	351.611
261.7000	-77663.1	351.675
261.6000	-70945.9	351.745
261.5000	-83345	351.821
261.4000	-96656.1	351.9
261.3000	-104034	351.964
261.2000	-111134	352.031
261.1000	-107401	352.105
261.0000	-114308	352.194
260.9000	-115197	352.283
260.8000	-114028	352.379
260.7000	-101279	352.472
260.6000	-85679.1	352.552
260.5000	-88545.3	352.638
260.4000	-91088.6	352.738
260.3000	-91156.3	352.837
260.2000	-99170.4	352.91
260.1000	-103848	352.984
260.0000	-103981	353.069
259.9000	-98749.8	353.143
259.8000	-106116	353.227
259.7000	-103173	353.31
259.6000	-89041.6	353.377
259.5000	-77594.8	353.443
259.4000	-66097	353.523
259.3000	-59124.7	353.598
259.2000	-59909	353.679
259.1000	-62221.6	353.768
259.0000	-45107.6	353.848
258.9000	-32655.8	353.934
258.8000	-40495.1	354.044
258.7000	-54967.5	354.149
258.6000	-61896	354.265
258.5000	-65228.4	354.392
258.4000	-58069	354.507
258.3000	-48079.5	354.616
258.2000	-47336.8	354.734
258.1000	-55752.3	354.839
258.0000	-48969.3	354.941
257.9000	-55725.6	355.041
257.8000	-66946.7	355.121
257.7000	-75166.4	355.197
257.6000	-80515.7	355.282
257.5000	-91370.4	355.361
257.4000	-102546	355.447
257.3000	-110899	355.543
257.2000	-122908	355.643
257.1000	-113852	355.738
257.0000	-111383	355.827
256.9000	-119327	355.913
256.8000	-127744	355.987
256.7000	-133179	356.074
256.6000	-142334	356.157
256.5000	-154008	356.224
256.4000	-151575	356.293
256.3000	-151346	356.356
256.2000	-145592	356.432
256.1000	-151677	356.529
256.0000	-143793	356.625
255.9000	-130922	356.725
255.8000	-116215	356.808
255.7000	-112798	356.907
255.6000	-99240.1	357.012
255.5000	-101336	357.11
255.4000	-103409	357.214
255.3000	-98238.2	357.305
255.2000	-88396.8	357.409
255.1000	-95020.2	357.513
255.0000	-89583.3	357.629
254.9000	-87351.9	357.724
254.8000	-97651.3	357.814
254.7000	-94914.2	357.925
254.6000	-93159.6	358.034
254.5000	-90122.3	358.149
254.4000	-69129.2	358.248
254.3000	-60315.4	358.34
254.2000	-67544.7	358.421
254.1000	-71104.2	358.511
254.0000	-66979.8	358.605
253.9000	-56600.4	358.7
253.8000	-59417	358.783
253.7000	-66859.2	358.871
253.6000	-84586.7	358.962
253.5000	-113162	359.065
253.4000	-120474	359.167
253.3000	-124288	359.272
253.2000	-114327	359.374
253.1000	-115889	359.475
253.0000	-131865	359.561
252.9000	-137138	359.644
252.8000	-138416	359.717
252.7000	-127297	359.791
252.6000	-116219	359.858
252.5000	-106746	359.93
252.4000	-119145	359.994
252.3000	-124674	360.06
252.2000	-118126	360.131
252.1000	-103956	360.217
252.0000	-97317.8	360.303
251.9000	-99542.5	360.379
251.8000	-111859	360.462
251.7000	-126053	360.545
251.6000	-118428	360.647
251.5000	-106433	360.746
251.4000	-115085	360.85
251.3000	-119370	360.948
251.2000	-131190	361.036
251.1000	-124733	361.143
251.0000	-99922.1	361.263
250.9000	-92053.7	361.38
250.8000	-95386.5	361.48
250.7000	-104841	361.585
250.6000	-95605.1	361.686
250.5000	-84411.1	361.779
250.4000	-62786.8	361.885
250.3000	-46989.2	361.99
250.2000	-50798.5	362.089
250.1000	-45873.1	362.173
250.0000	-39283.4	362.264
249.9000	-38461.3	362.363
249.8000	-49012.2	362.452
249.7000	-53076.3	362.548
249.6000	-57360.3	362.637
249.5000	-70166.8	362.727
249.4000	-74556.3	362.827
249.3000	-81795	362.928
249.2000	-83722	363.032
249.1000	-70773.6	363.132
249.0000	-54743.2	363.223
248.9000	-32079.5	363.323
248.8000	-43857.6	363.433
248.7000	-49958.6	363.537
248.6000	-62358.7	363.628
248.5000	-77557	363.721
248.4000	-89424.1	363.818
248.3000	-102760	363.917
248.2000	-106280	364.031
248.1000	-112368	364.137
248.0000	-102168	364.23
247.9000	-84409	364.329
247.8000	-64154.8	364.427
247.7000	-62811.9	364.513
247.6000	-46661.7	364.616
247.5000	-28048.1	364.72
247.4000	-15664.1	364.8
247.3000	-20256.3	364.864
247.2000	-29237.1	364.937
247.1000	-52702.1	365.008
247.0000	-58442.3	365.085
246.9000	-66060.2	365.174
246.8000	-74882.6	365.248
246.7000	-83518.4	365.305
246.6000	-85069.2	365.378
246.5000	-87489.3	365.484
246.4000	-77360.3	365.599
246.3000	-73593.1	365.711
246.2000	-73920.1	365.814
246.1000	-60351.8	365.922
246.0000	-48669.7	366.031
245.9000	-53612.2	366.139
245.8000	-72266.4	366.253
245.7000	-80633.5	366.372
245.6000	-87740.4	366.48
245.5000	-97057.4	366.578
245.4000	-95899.1	366.677
245.3000	-104241	366.774
245.2000	-104470	366.894
245.1000	-94325.9	367.026
245.0000	-81866.2	367.15
244.9000	-67840.5	367.256
244.8000	-72455.6	367.354
244.7000	-73644	367.471
244.6000	-60172.6	367.593
244.5000	-67378.2	367.709
244.4000	-78496.6	367.809
244.3000	-91862.4	367.894
244.2000	-98104.5	367.983
244.1000	-98169.9	368.084
244.0000	-93161.6	368.183
243.9000	-86125.1	368.273
243.8000	-91103.7	368.357
243.7000	-83933.8	368.447
243.6000	-68510.2	368.541
243.5000	-47546.8	368.643
243.4000	-36406.1	368.757
243.3000	-41980.3	368.87
243.2000	-53478.8	368.984
243.1000	-46028.3	369.099
243.0000	-42193.4	369.215
242.9000	-56565.6	369.335
242.8000	-72889.3	369.467
242.7000	-94036.3	369.595
242.6000	-105940	369.711
242.5000	-119361	369.825
242.4000	-119775	369.948
242.3000	-121346	370.071
242.2000	-128993	370.194
242.1000	-129044	370.313
242.0000	-112778	370.427
241.9000	-84658.1	370.539
241.8000	-58704.9	370.661
241.7000	-35134	370.785
241.6000	-26378.5	370.895
241.5000	-28264.7	371.004
241.4000	-32794	371.121
241.3000	-22986	371.24
241.2000	-34913.6	371.352
241.1000	-55100.8	371.474
241.0000	-75152.7	371.606
240.9000	-89697.9	371.739
240.8000	-103332	371.877
240.7000	-108615	372.019
240.6000	-120667	372.159
240.5000	-126038	372.306
240.4000	-121486	372.455
240.3000	-114901	372.602
240.2000	-117219	372.747
240.1000	-106507	372.895
240.0000	-108063	373.033
239.9000	-99464	373.174
239.8000	-87285.5	373.322
239.7000	-77702.5	373.472
239.6000	-86814.8	373.622
239.5000	-84916.1	373.78
239.4000	-97598.6	373.929
239.3000	-109838	374.072
239.2000	-115619	374.214
239.1000	-120602	374.366
239.0000	-118774	374.523
238.9000	-103507	374.677
238.8000	-95414.7	374.829
238.7000	-99180	374.978
238.6000	-77541.2	375.12
238.5000	-52199.9	375.261
238.4000	-39082.3	375.409
238.3000	-24468.4	375.566
238.2000	-4927.86	375.724
238.1000	-6577	375.877
238.0000	-5897.47	376.038
237.9000	-12382.6	376.196
237.8000	-27100.7	376.352
237.7000	-47330	376.512
237.6000	-53286.5	376.682
237.5000	-57995.4	376.845
237.4000	-77049.5	377.005
237.3000	-78987.4	377.17
237.2000	-81727	377.342
237.1000	-67752.9	377.51
237.0000	-52679.4	377.685
236.9000	-37277	377.871
236.8000	-34492.8	378.048
236.7000	-17165.1	378.227
236.6000	-15554.8	378.391
236.5000	-23700.7	378.555
236.4000	-28967.9	378.723
236.3000	-43088.4	378.892
236.2000	-52761.4	379.069
236.1000	-60171.3	379.234
236.0000	-62164.9	379.399
235.9000	-82145.6	379.565
235.8000	-90377.9	379.741
235.7000	-102081	379.913
235.6000	-134429	380.08
235.5000	-145465	380.252
235.4000	-158497	380.426
235.3000	-149065	380.607
235.2000	-142475	380.792
235.1000	-144492	380.973
235.0000	-150329	381.155
234.9000	-134750	381.335
234.8000	-113713	381.517
234.7000	-97777.9	381.702
234.6000	-82553	381.872
234.5000	-82156	382.045
234.4000	-97636.7	382.219
234.3000	-94662.9	382.394
234.2000	-94064.4	382.564
234.1000	-89244.5	382.742
234.0000	-80896.8	382.922
233.9000	-74750.2	383.101
233.8000	-66620	383.286
233.7000	-68001.3	383.466
233.6000	-61595.8	383.657
233.5000	-68989.3	383.851
233.4000	-57087.5	384.047
233.3000	-63693.5	384.246
233.2000	-76009.6	384.45
233.1000	-96869.2	384.648
233.0000	-113120	384.848
232.9000	-108044	385.049
232.8000	-118978	385.244
232.7000	-96082.7	385.442
232.6000	-98050.6	385.635
232.5000	-109030	385.83
232.4000	-101827	386.02
232.3000	-94688.9	386.213
232.2000	-88856.5	386.398
232.1000	-77677	386.587
232.0000	-63537.9	386.774
231.9000	-67397.9	386.962
231.8000	-67023.5	387.143
231.7000	-47818.8	387.329
231.6000	-45459.3	387.515
231.5000	-55654.7	387.696
231.4000	-61476.8	387.888
231.3000	-85006.8	388.077
231.2000	-112744	388.272
231.1000	-141954	388.457
231.0000	-155339	388.645
230.9000	-189287	388.836
230.8000	-206842	389.027
230.7000	-218190	389.223
230.6000	-206076	389.418
230.5000	-181224	389.622
230.4000	-161425	389.824
230.3000	-149951	390.038
230.2000	-155527	390.25
230.1000	-152539	390.467
230.0000	-125189	390.684
229.9000	-97677.4	390.892
229.8000	-95510	391.098
229.7000	-106656	391.293
229.6000	-102938	391.49
229.5000	-102023	391.671
229.4000	-103000	391.841
229.3000	-104299	392.009
229.2000	-115958	392.173
229.1000	-127593	392.34
229.0000	-132294	392.511
228.9000	-136619	392.68
228.8000	-158546	392.848
228.7000	-190343	393.031
228.6000	-177202	393.235
228.5000	-157019	393.446
228.4000	-162999	393.667
228.3000	-178668	393.892
228.2000	-184330	394.122
228.1000	-191597	394.361
228.0000	-191971	394.601
227.9000	-153425	394.841
227.8000	-121717	395.072
227.7000	-102475	395.307
227.6000	-105957	395.527
227.5000	-101371	395.749
227.4000	-84671	395.974
227.3000	-74832.1	396.198
227.2000	-66649.3	396.417
227.1000	-85144.5	396.631
227.0000	-109096	396.844
226.9000	-129846	397.051
226.8000	-142263	397.263
226.7000	-149247	397.476
226.6000	-178548	397.681
226.5000	-211586	397.884
226.4000	-222199	398.085
226.3000	-211950	398.29
226.2000	-196492	398.507
226.1000	-193527	398.727
226.0000	-174085	398.946
225.9000	-154394	399.164
225.8000	-127042	399.38
225.7000	-92273.4	399.597
225.6000	-76814.6	399.814
225.5000	-70187.2	400.034
225.4000	-88736.2	400.244
225.3000	-102791	400.456
225.2000	-98161.3	400.672
225.1000	-99458.6	400.887
225.0000	-80783.2	401.102
224.9000	-89632.5	401.314
224.8000	-94269.3	401.527
224.7000	-95817.5	401.741
224.6000	-92167.6	401.957
224.5000	-71891.2	402.171
224.4000	-75356.5	402.382
224.3000	-85028.5	402.594
224.2000	-118640	402.804
224.1000	-153450	403.013
224.0000	-185126	403.223
223.9000	-189759	403.436
223.8000	-180704	403.655
223.7000	-173531	403.875
223.6000	-187429	404.089
223.5000	-203862	404.303
223.4000	-208512	404.521
223.3000	-199088	404.736
223.2000	-177294	404.951
223.1000	-167101	405.165
223.0000	-184659	405.373
222.9000	-200535	405.576
222.8000	-179117	405.787
222.7000	-157440	405.996
222.6000	-129201	406.203
222.5000	-99465.2	406.413
222.4000	-82002.2	406.618
222.3000	-60734.5	406.825
222.2000	-48465.3	407.029
222.1000	-38875.8	407.235
222.0000	-43045.2	407.437
221.9000	-63513.6	407.63
221.8000	-90314.2	407.826
221.7000	-84323.9	408.028
221.6000	-74187.7	408.238
221.5000	-110670	408.443
221.4000	-117491	408.65
221.3000	-107276	408.861
221.2000	-110694	409.071
221.1000	-98173.6	409.286
221.0000	-63121.3	409.501
220.9000	-49429.3	409.716
220.8000	-65607.7	409.925
220.7000	-60484.8	410.129
220.6000	-61995.2	410.335
220.5000	-55334.4	410.551
220.4000	-33541	410.763
220.3000	-48065.1	410.967
220.2000	-65887.1	411.18
220.1000	-84847	411.385
220.0000	-94604.6	411.595
219.9000	-80637.6	411.816
219.8000	-43895.1	412.04
219.7000	-27335.4	412.253
219.6000	-30820	412.461
219.5000	-14914.9	412.678
219.4000	-2778.41	412.896
219.3000	6652.04	413.11
219.2000	-9534.49	413.321
219.1000	-7355.19	413.533
219.0000	-52726.4	413.74
218.9000	-97921	413.942
218.8000	-125084	414.153
218.7000	-159734	414.357
218.6000	-189132	414.563
218.5000	-210763	414.767
218.4000	-212230	414.977
218.3000	-196682	415.187
218.2000	-176764	415.399
218.1000	-142391	415.614
218.0000	-152653	415.821
217.9000	-165439	416.026
217.8000	-153595	416.23
217.7000	-153046	416.435
217.6000	-139077	416.643
217.5000	-151641	416.852
217.4000	-160550	417.059
217.3000	-173008	417.264
217.2000	-137211	417.481
217.1000	-88199.6	417.698
217.0000	-67684	417.91
216.9000	-62565.7	418.123
216.8000	-53950.1	418.335
216.7000	-41067.8	418.542
216.6000	-42791.2	418.749
216.5000	-56690.8	418.954
216.4000	-51900	419.159
216.3000	-53958.1	419.36
216.2000	-66609	419.571
216.1000	-68371.7	419.78
216.0000	-55384.6	419.99
215.9000	-54473.1	420.198
215.8000	-35237.8	420.407
215.7000	-3029.16	420.625
215.6000	-6854.03	420.834
215.5000	-31105.8	421.043
215.4000	-35774.4	421.252
215.3000	-21045.9	421.463
215.2000	-11697.8	421.673
215.1000	-15332.3	421.89
215.0000	-16944.8	422.11
214.9000	-38304.3	422.325
214.8000	-74378.1	422.533
214.7000	-82369.1	422.748
214.6000	-76565.7	422.969
214.5000	-90014.9	423.188
214.4000	-127257	423.404
214.3000	-140865	423.619
214.2000	-142306	423.833
214.1000	-130652	424.05
214.0000	-96165.1	424.273
213.9000	-88222.7	424.496
213.8000	-80624.3	424.718
213.7000	-93760.8	424.937
213.6000	-80823.2	425.16
213.5000	-81378.6	425.385
213.4000	-68081.3	425.614
213.3000	-69442.9	425.844
213.2000	-61341.3	426.077
213.1000	-57292.1	426.31
213.0000	-66934	426.542
212.9000	-79626.6	426.775
212.8000	-83701	427.003
212.7000	-90495.9	427.233
212.6000	-112532	427.461
212.5000	-123746	427.691
212.4000	-127117	427.928
212.3000	-142944	428.156
212.2000	-145946	428.388
212.1000	-115749	428.627
212.0000	-70788.9	428.879
211.9000	-50516.4	429.128
211.8000	-19507.6	429.376
211.7000	-34834.2	429.618
211.6000	-71494.3	429.855
211.5000	-87457.9	430.095
211.4000	-90223.8	430.342
211.3000	-89587.9	430.593
211.2000	-83343.3	430.836
211.1000	-61376.1	431.086
211.0000	-68255.4	431.337
210.9000	-58525.5	431.589
210.8000	-7211.25	431.851
210.7000	29108.4	432.119
210.6000	45193.5	432.381
210.5000	44948.5	432.642
210.4000	12524.3	432.899
210.3000	-17639.4	433.162
210.2000	-7138.52	433.427
210.1000	8558.88	433.699
210.0000	-1318.14	433.964
209.9000	-19450	434.225
209.8000	-21430.6	434.483
209.7000	-27207.2	434.746
209.6000	-15808.2	435.01
209.5000	-9730.99	435.279
209.4000	10344.3	435.547
209.3000	-7896.54	435.807
209.2000	-36159.7	436.068
209.1000	-50174.6	436.332
209.0000	-59255.4	436.598
208.9000	-69746	436.864
208.8000	-88997.5	437.126
208.7000	-135907	437.381
208.6000	-169845	437.648
208.5000	-182748	437.921
208.4000	-170639	438.192
208.3000	-167120	438.464
208.2000	-144006	438.74
208.1000	-164637	439.007
208.0000	-165193	439.279
207.9000	-119340	439.558
207.8000	-107490	439.832
207.7000	-127538	440.096
207.6000	-149386	440.363
207.5000	-167920	440.63
207.4000	-205464	440.891
207.3000	-206939	441.161
207.2000	-195163	441.433
207.1000	-199213	441.7
207.0000	-204586	441.965
206.9000	-219763	442.226
206.8000	-229972	442.488
206.7000	-246169	442.746
206.6000	-237591	443.012
206.5000	-222490	443.281
206.4000	-200856	443.552
206.3000	-193344	443.822
206.2000	-199224	444.08
206.1000	-190712	444.341
206.0000	-171747	444.606
205.9000	-138406	444.872
205.8000	-96195.1	445.142
205.7000	-66189.4	445.407
205.6000	-59618.8	445.668
205.5000	-58499.3	445.929
205.4000	-72377.8	446.187
205.3000	-83350.1	446.45
205.2000	-95902.5	446.713
205.1000	-83791.2	446.985
205.0000	-143440	447.24
204.9000	-190839	447.498
204.8000	-174123	447.767
204.7000	-192292	448.032
204.6000	-178753	448.305
204.5000	-173947	448.579
204.4000	-158512	448.85
204.3000	-143212	449.119
204.2000	-86329.3	449.401
204.1000	-32063.6	449.68
204.0000	-51223.9	449.948
203.9000	-65507.8	450.212
203.8000	-70113.1	450.48
203.7000	-58971.6	450.751
203.6000	-47978.5	451.025
203.5000	-64341.2	451.296
203.4000	-73862.8	451.568
203.3000	-70520.5	451.843
203.2000	-59114	452.125
203.1000	-48359.6	452.404
203.0000	-28896.5	452.689
202.9000	830.298	452.975
202.8000	15683.4	453.257
202.7000	8341.35	453.536
202.6000	-42088.6	453.802
202.5000	-92414.1	454.069
202.4000	-151527	454.331
202.3000	-164392	454.604
202.2000	-182548	454.874
202.1000	-250945	455.136
202.0000	-321963	455.401
201.9000	-314226	455.687
201.8000	-253192	455.988
201.7000	-213468	456.287
201.6000	-150443	456.594
201.5000	-102057	456.9
201.4000	-55388.3	457.21
201.3000	-14885.6	457.519
201.2000	48971.6	457.833
201.1000	71526.5	458.141
201.0000	54617	458.437
200.9000	44005.4	458.738
200.8000	32043.2	459.043
200.7000	-12830.6	459.346
200.6000	-59069.4	459.655
200.5000	-109988	459.97
200.4000	-128510	460.299
200.3000	-126150	460.634
200.2000	-121023	460.974
200.1000	-127790	461.307
200.0000	-114479	461.64
199.9000	-106144	461.966
199.8000	-88959.7	462.28
199.7000	-78732.3	462.583
199.6000	-59086.7	462.88
199.5000	-66492.3	463.171
199.4000	-73317.4	463.458
199.3000	-51390.9	463.752
199.2000	-40182.8	464.051
199.1000	-59549.9	464.347
199.0000	-44980.8	464.662
198.9000	-38205.6	464.985
198.8000	-51554	465.311
198.7000	-63957.2	465.647
198.6000	-85802.2	465.987
198.5000	-78721.9	466.344
198.4000	-82629.9	466.701
198.3000	-112072	467.061
198.2000	-120254	467.443
198.1000	-131093	467.839
198.0000	-127931	468.262
197.9000	-122432	468.691
197.8000	-121211	469.127
197.7000	-126906	469.565
197.6000	-145562	469.993
197.5000	-110900	470.421
197.4000	-59645.9	470.82
197.3000	-17680.1	471.178
197.2000	3714.21	471.484
197.1000	31202.1	471.755
197.0000	40692.4	471.998
196.9000	47464.9	472.226
196.8000	14803.8	472.44
196.7000	16592.8	472.668
196.6000	20919	472.915
196.5000	11418.4	473.191
196.4000	-23301.6	473.506
196.3000	-60872	473.863
196.2000	-78740	474.265
196.1000	-100432	474.709
196.0000	-81064.3	475.216
195.9000	-83978.4	475.792
195.8000	-108296	476.456
195.7000	-121879	477.229
195.6000	-100331	478.099
195.5000	-68182.8	479.048
195.4000	-53870.9	480.041
195.3000	-34587.4	481.042
195.2000	7412.77	482.024
195.1000	12309.1	482.916
195.0000	-8246.65	483.665
194.9000	-41822.4	484.214
194.8000	-42825.9	484.57
194.7000	-53491.5	484.754
194.6000	-64412	484.803
194.5000	-52784	484.77
194.4000	-108251	484.679
194.3000	-143993	484.599
194.2000	-101820	484.6
194.1000	-48730.4	484.729
194.0000	-51503.8	485.018
193.9000	-38398.5	485.496
193.8000	-11634.8	486.184
193.7000	-41211.9	487.096
193.6000	-55689.4	488.282
193.5000	-54958.9	489.78
193.4000	-122730	491.599
193.3000	-164138	493.707
193.2000	-190014	496.031
193.1000	-234135	498.463
193.0000	-286354	500.887
192.9000	-272124	503.181
192.8000	-225599	505.183
192.7000	-170440	506.697
192.6000	-100768	507.597
192.5000	-77422	507.88
192.4000	-107236	507.643
192.3000	-92106.4	507.022
192.2000	-54325.8	506.142
192.1000	-673.539	505.141
192.0000	8400.18	504.171
191.9000	-4477.22	503.431
191.8000	-8480.28	503.112
191.7000	-39480.9	503.288
191.6000	-5766.08	503.995
191.5000	-9026.54	505.208
191.4000	-20729.9	506.934
191.3000	-71672	509.194
191.2000	-97523.8	511.991
191.1000	-135487	515.247
191.0000	-158964	518.809
190.9000	-154349	522.486
190.8000	-118122	526.091
190.7000	-113337	529.416
190.6000	-142703	532.263
190.5000	-139340	534.421
190.4000	-85435.8	535.719
190.3000	-39460.5	536.143
190.2000	-7153.95	535.823
190.1000	18727.3	534.969
190.0000	21914	533.814

##### Extended Information
[Comments]
Sample name	Seo_0.6uM
Comment
User
Division
Company	CSIR-IMTECH

[Detailed Information]
Creation date	4/8/2024 3:19 PM

Data array type	Linear data array * 2
Horizontal axis	Wavelength [nm]
Vertical axis(1)	Mol. Ellip.
Vertical axis(2)	HT [V]
Start	350 nm
End	190 nm
Data interval	0.1 nm
Data points	1601    

[Measurement Information]
Instrument Name	JASCO CD
Model Name	J-815
Serial No.	B063061168

Accessory	PTC-423S
Accessory S/N	C013945-01
  Temperature	36.65 C
  Control Sonsor	Cell
  Monitor Sensor	Cell
  Start Mode	Start immediately
  Cell Length	10 mm

Measurement date	4/8/2024 3:18 PM

Photometric Mode	CD, HT
Measure Range	350 - 190 nm
Data pitch	0.1 nm
Sensitivity	Standard
D.I.T.	1 sec
Bandwidth	1.00 nm
Start Mode	Immediately
Scanning Speed	50 nm/min
Baseline Correction	None
Shutter Control	Auto
CD Detector	PMT
PMT Voltage	Auto
Accumulations	3
Concentration	0.6 umol/L

