TITLE	ACE2_doxer_0.6uM
DATA TYPE	
ORIGIN	JASCO
OWNER	
DATE	24/04/08
TIME	19:01:18
SPECTROMETER/DATA SYSTEM	
LOCALE	1033
RESOLUTION	
DELTAX	-0.1
XUNITS	NANOMETERS
YUNITS	CD [mdeg]
Y2UNITS	HT [V]
FIRSTX	  350.0000
LASTX	  190.0000
NPOINTS	    1601
FIRSTY	    -0.76562
MAXY	     6.80103
MINY	    -2.62895
XYDATA
350.0000	-0.765623	493.041
349.9000	-0.16498	492.443
349.8000	0.137677	491.526
349.7000	0.366585	490.59
349.6000	0.365167	489.909
349.5000	0.46208	489.314
349.4000	0.628776	488.398
349.3000	0.956561	487.748
349.2000	0.802182	487.18
349.1000	0.640212	486.293
349.0000	0.614609	485.633
348.9000	0.696763	485.057
348.8000	0.768849	484.15
348.7000	0.707753	483.228
348.6000	0.741842	482.547
348.5000	0.72701	481.937
348.4000	0.598558	480.952
348.3000	0.446104	480.195
348.2000	0.311746	479.519
348.1000	0.104214	478.542
348.0000	0.0846552	477.806
347.9000	-0.0235177	477.156
347.8000	-0.288322	476.218
347.7000	-0.702515	475.274
347.6000	-0.983566	474.609
347.5000	-1.02801	474.068
347.4000	-0.933616	473.232
347.3000	-0.584699	472.612
347.2000	-0.508728	472.075
347.1000	-0.425926	471.266
347.0000	-0.287859	470.672
346.9000	-0.192472	470.158
346.8000	-0.0576382	469.359
346.7000	0.151624	468.551
346.6000	0.180823	467.945
346.5000	0.0780493	467.127
346.4000	-0.0703864	466.292
346.3000	-0.179808	465.645
346.2000	-0.39375	464.799
346.1000	-0.18275	463.952
346.0000	0.0705102	463.319
345.9000	0.176101	462.762
345.8000	0.26249	461.902
345.7000	0.40458	461.27
345.6000	0.630424	460.737
345.5000	0.753769	459.972
345.4000	0.859003	459.416
345.3000	0.675921	458.939
345.2000	0.553759	458.195
345.1000	0.416365	457.444
345.0000	0.381912	456.903
344.9000	0.413505	456.211
344.8000	0.410348	455.505
344.7000	0.554444	454.961
344.6000	0.501631	454.241
344.5000	0.577804	453.508
344.4000	0.680267	452.961
344.3000	0.822364	452.238
344.2000	0.879887	451.505
344.1000	0.825374	450.945
344.0000	0.624517	450.216
343.9000	0.343247	449.48
343.8000	-0.0349755	448.935
343.7000	-0.227807	448.471
343.6000	-0.402584	447.774
343.5000	-0.539737	447.27
343.4000	-0.607437	446.845
343.3000	-0.59319	446.155
343.2000	-0.701154	445.643
343.1000	-0.759066	445.2
343.0000	-0.750259	444.568
342.9000	-0.514861	443.926
342.8000	-0.363253	443.439
342.7000	-0.249336	442.775
342.6000	-0.370721	442.089
342.5000	-0.668525	441.583
342.4000	-0.563392	440.978
342.3000	-0.313414	440.37
342.2000	0.0951625	439.901
342.1000	0.311984	439.279
342.0000	0.329795	438.652
341.9000	0.275576	438.207
341.8000	0.231063	437.622
341.7000	0.48623	437.042
341.6000	0.508517	436.602
341.5000	0.318352	436.031
341.4000	-0.0229874	435.447
341.3000	-0.250295	435.013
341.2000	-0.380306	434.42
341.1000	-0.584704	433.806
341.0000	-0.83904	433.345
340.9000	-0.915855	432.75
340.8000	-0.993882	432.14
340.7000	-1.00401	431.662
340.6000	-0.964979	431.074
340.5000	-0.820562	430.484
340.4000	-0.841252	430.047
340.3000	-0.694296	429.484
340.2000	-0.560354	428.917
340.1000	-0.300816	428.512
340.0000	-0.147424	428.005
339.9000	-0.127322	427.494
339.8000	-0.229617	427.106
339.7000	-0.264604	426.609
339.6000	-0.186281	426.111
339.5000	-0.0069859	425.764
339.4000	0.0800276	425.283
339.3000	0.0251842	424.773
339.2000	-0.20133	424.214
339.1000	-0.264134	423.71
339.0000	-0.244916	423.193
338.9000	-0.262736	422.608
338.8000	-0.378161	422.067
338.7000	-0.521218	421.515
338.6000	-0.519119	420.922
338.5000	-0.32469	420.408
338.4000	-0.17978	420.023
338.3000	-0.0835556	419.549
338.2000	0.142333	419.076
338.1000	0.323731	418.74
338.0000	0.422595	418.294
337.9000	0.653839	417.849
337.8000	0.688388	417.535
337.7000	0.558294	417.125
337.6000	0.520174	416.696
337.5000	0.590801	416.367
337.4000	0.427593	415.935
337.3000	0.416907	415.487
337.2000	0.5041	414.997
337.1000	0.40113	414.551
337.0000	0.21661	414.093
336.9000	0.146826	413.599
336.8000	-0.0176528	413.161
336.7000	-0.134437	412.727
336.6000	-0.070411	412.256
336.5000	-0.18014	411.822
336.4000	-0.252891	411.517
336.3000	-0.38572	411.093
336.2000	-0.330939	410.665
336.1000	-0.233299	410.355
336.0000	-0.0630803	409.967
335.9000	0.104894	409.555
335.8000	-0.00292251	409.09
335.7000	0.000451463	408.676
335.6000	0.00555171	408.257
335.5000	0.0424523	407.821
335.4000	-0.0516693	407.435
335.3000	-0.157917	407.045
335.2000	-0.148819	406.636
335.1000	-0.150862	406.274
335.0000	-0.100644	406.03
334.9000	-0.00205205	405.682
334.8000	0.0730494	405.315
334.7000	-0.00719478	404.923
334.6000	0.106754	404.589
334.5000	0.189373	404.247
334.4000	0.15236	403.827
334.3000	0.16259	403.434
334.2000	0.183164	403.03
334.1000	0.123168	402.596
334.0000	0.0451248	402.221
333.9000	0.0430513	401.938
333.8000	0.0331003	401.564
333.7000	0.00644802	401.182
333.6000	-0.0016872	400.777
333.5000	-0.0553313	400.427
333.4000	-0.164136	400.076
333.3000	-0.254647	399.708
333.2000	-0.269865	399.389
333.1000	-0.231413	399.068
333.0000	-0.278105	398.718
332.9000	-0.374733	398.4
332.8000	-0.437098	398.041
332.7000	-0.391516	397.725
332.6000	-0.353353	397.4
332.5000	-0.22909	397.044
332.4000	-0.214422	396.724
332.3000	-0.223726	396.4
332.2000	-0.230108	396.033
332.1000	-0.024856	395.706
332.0000	0.0944349	395.358
331.9000	0.110628	395.058
331.8000	0.00690385	394.754
331.7000	-0.0479151	394.406
331.6000	0.0436902	394.091
331.5000	0.100434	393.655
331.4000	0.152877	393.309
331.3000	0.094431	393
331.2000	0.0396965	392.661
331.1000	0.056312	392.359
331.0000	0.200152	392.053
330.9000	0.257853	391.734
330.8000	0.225098	391.454
330.7000	0.141926	391.137
330.6000	0.117258	390.863
330.5000	0.105281	390.587
330.4000	0.104241	390.285
330.3000	0.0840148	390.017
330.2000	-0.028518	389.639
330.1000	-0.0780381	389.336
330.0000	-0.15722	389.063
329.9000	-0.177827	388.759
329.8000	-0.123339	388.487
329.7000	-0.0954901	388.119
329.6000	-0.0396514	387.831
329.5000	-0.196227	387.572
329.4000	-0.179395	387.262
329.3000	-0.141025	386.984
329.2000	-0.100627	386.606
329.1000	-0.114285	386.307
329.0000	-0.138247	386.052
328.9000	-0.146625	385.771
328.8000	-0.197614	385.517
328.7000	-0.0861534	385.173
328.6000	0.0242824	384.919
328.5000	0.127516	384.711
328.4000	0.206558	384.442
328.3000	0.184869	384.197
328.2000	0.2037	383.883
328.1000	0.241085	383.637
328.0000	0.193988	383.416
327.9000	0.137751	383.132
327.8000	0.0502924	382.876
327.7000	-0.0188993	382.593
327.6000	-0.0654257	382.407
327.5000	-0.0542066	382.27
327.4000	-0.0400183	381.991
327.3000	-0.113255	381.722
327.2000	-0.148918	381.412
327.1000	-0.146028	381.197
327.0000	-0.246077	381.02
326.9000	-0.342367	380.733
326.8000	-0.4269	380.438
326.7000	-0.437972	380.103
326.6000	-0.406896	379.899
326.5000	-0.445925	379.76
326.4000	-0.434717	379.481
326.3000	-0.446686	379.2
326.2000	-0.37732	378.907
326.1000	-0.325593	378.709
326.0000	-0.307062	378.386
325.9000	-0.406447	378.087
325.8000	-0.449288	377.8
325.7000	-0.500245	377.534
325.6000	-0.415911	377.394
325.5000	-0.326051	377.108
325.4000	-0.296115	376.825
325.3000	-0.279895	376.533
325.2000	-0.282558	376.362
325.1000	-0.282319	376.249
325.0000	-0.317296	375.966
324.9000	-0.347251	375.663
324.8000	-0.341721	375.348
324.7000	-0.374688	375.188
324.6000	-0.44472	375.103
324.5000	-0.439796	374.828
324.4000	-0.448676	374.549
324.3000	-0.438926	374.294
324.2000	-0.387171	374.159
324.1000	-0.336214	373.893
324.0000	-0.281923	373.621
323.9000	-0.385302	373.331
323.8000	-0.349903	373.066
323.7000	-0.428422	372.93
323.6000	-0.378809	372.656
323.5000	-0.317324	372.354
323.4000	-0.233271	372.055
323.3000	-0.155193	371.897
323.2000	-0.178996	371.798
323.1000	-0.199382	371.532
323.0000	-0.311444	371.243
322.9000	-0.303007	370.955
322.8000	-0.263503	370.815
322.7000	-0.261128	370.561
322.6000	-0.212826	370.282
322.5000	-0.149986	369.996
322.4000	-0.0968591	369.711
322.3000	0.0638685	369.537
322.2000	0.207393	369.236
322.1000	0.313478	368.911
322.0000	0.370271	368.588
321.9000	0.3859	368.396
321.8000	0.303409	368.092
321.7000	0.18789	367.777
321.6000	0.102615	367.457
321.5000	-0.0123726	367.162
321.4000	-0.157837	367.006
321.3000	-0.192209	366.784
321.2000	-0.166608	366.562
321.1000	-0.241597	366.341
321.0000	-0.322352	366.261
320.9000	-0.355661	366.104
320.8000	-0.465041	365.945
320.7000	-0.476382	365.8
320.6000	-0.379834	365.653
320.5000	-0.364473	365.605
320.4000	-0.446762	365.435
320.3000	-0.507354	365.248
320.2000	-0.499576	365.078
320.1000	-0.495655	365.014
320.0000	-0.38243	364.848
319.9000	-0.240989	364.664
319.8000	-0.253466	364.472
319.7000	-0.318121	364.273
319.6000	-0.338374	364.05
319.5000	-0.245575	363.889
319.4000	-0.127497	363.709
319.3000	-0.0875502	363.494
319.2000	-0.0656165	363.384
319.1000	-0.129339	363.179
319.0000	-0.0977612	362.959
318.9000	-0.024917	362.739
318.8000	0.0487338	362.619
318.7000	0.0606202	362.389
318.6000	0.0748655	362.15
318.5000	0.145475	361.949
318.4000	0.141081	361.746
318.3000	0.102166	361.521
318.2000	0.00721108	361.347
318.1000	-0.159849	361.169
318.0000	-0.168816	360.978
317.9000	-0.122362	360.903
317.8000	-0.17615	360.775
317.7000	-0.314728	360.62
317.6000	-0.420573	360.428
317.5000	-0.458008	360.328
317.4000	-0.441131	360.157
317.3000	-0.303463	359.978
317.2000	-0.264634	359.783
317.1000	-0.349676	359.58
317.0000	-0.440827	359.316
316.9000	-0.432817	359.094
316.8000	-0.500954	358.89
316.7000	-0.55729	358.685
316.6000	-0.625256	358.483
316.5000	-0.663196	358.322
316.4000	-0.713457	358.146
316.3000	-0.81789	357.967
316.2000	-0.805796	357.797
316.1000	-0.662439	357.679
316.0000	-0.504032	357.562
315.9000	-0.433307	357.401
315.8000	-0.429463	357.295
315.7000	-0.429386	357.121
315.6000	-0.376735	356.969
315.5000	-0.296215	356.79
315.4000	-0.253755	356.676
315.3000	-0.315522	356.47
315.2000	-0.455848	356.252
315.1000	-0.533438	356.06
315.0000	-0.531602	355.877
314.9000	-0.527052	355.692
314.8000	-0.596774	355.533
314.7000	-0.69746	355.359
314.6000	-0.710196	355.193
314.5000	-0.763949	355.038
314.4000	-0.805908	354.924
314.3000	-0.771458	354.783
314.2000	-0.775001	354.64
314.1000	-0.749266	354.449
314.0000	-0.747206	354.281
313.9000	-0.7452	354.114
313.8000	-0.741441	353.959
313.7000	-0.73183	353.733
313.6000	-0.723741	353.528
313.5000	-0.681746	353.34
313.4000	-0.636187	353.158
313.3000	-0.615499	352.985
313.2000	-0.639776	352.84
313.1000	-0.660197	352.681
313.0000	-0.65354	352.526
312.9000	-0.650588	352.384
312.8000	-0.565667	352.284
312.7000	-0.538208	352.148
312.6000	-0.560157	352.01
312.5000	-0.572643	351.84
312.4000	-0.590812	351.682
312.3000	-0.557912	351.512
312.2000	-0.493943	351.347
312.1000	-0.512321	351.116
312.0000	-0.592907	350.901
311.9000	-0.634164	350.696
311.8000	-0.649043	350.456
311.7000	-0.645566	350.263
311.6000	-0.628729	350.059
311.5000	-0.541807	349.891
311.4000	-0.487838	349.681
311.3000	-0.47633	349.546
311.2000	-0.474058	349.417
311.1000	-0.499262	349.306
311.0000	-0.50459	349.182
310.9000	-0.555421	349.078
310.8000	-0.574855	348.964
310.7000	-0.635556	348.862
310.6000	-0.635018	348.727
310.5000	-0.658834	348.609
310.4000	-0.639038	348.495
310.3000	-0.544248	348.394
310.2000	-0.482217	348.302
310.1000	-0.418486	348.227
310.0000	-0.333936	348.148
309.9000	-0.280897	348.078
309.8000	-0.29711	348.013
309.7000	-0.358644	347.918
309.6000	-0.318723	347.845
309.5000	-0.316081	347.728
309.4000	-0.31632	347.628
309.3000	-0.349185	347.483
309.2000	-0.361558	347.363
309.1000	-0.394913	347.182
309.0000	-0.452997	347.029
308.9000	-0.373868	346.895
308.8000	-0.385653	346.771
308.7000	-0.436274	346.66
308.6000	-0.524402	346.561
308.5000	-0.519403	346.455
308.4000	-0.472306	346.339
308.3000	-0.456043	346.271
308.2000	-0.388065	346.165
308.1000	-0.397811	346.08
308.0000	-0.389441	345.971
307.9000	-0.358576	345.88
307.8000	-0.362304	345.733
307.7000	-0.348523	345.618
307.6000	-0.350677	345.488
307.5000	-0.382874	345.309
307.4000	-0.449768	345.17
307.3000	-0.525599	345.041
307.2000	-0.612631	344.938
307.1000	-0.709317	344.793
307.0000	-0.749925	344.688
306.9000	-0.782984	344.583
306.8000	-0.854667	344.515
306.7000	-0.932215	344.442
306.6000	-0.93417	344.352
306.5000	-0.818842	344.271
306.4000	-0.799661	344.143
306.3000	-0.755064	344.049
306.2000	-0.7331	343.928
306.1000	-0.735259	343.819
306.0000	-0.709329	343.671
305.9000	-0.720151	343.562
305.8000	-0.738122	343.478
305.7000	-0.803301	343.358
305.6000	-0.857271	343.273
305.5000	-0.94593	343.183
305.4000	-0.993994	343.126
305.3000	-0.962107	343.03
305.2000	-0.92965	342.962
305.1000	-0.876947	342.878
305.0000	-0.871969	342.751
304.9000	-0.971977	342.658
304.8000	-0.966548	342.546
304.7000	-0.939503	342.448
304.6000	-0.86319	342.315
304.5000	-0.897659	342.2
304.4000	-0.921862	342.105
304.3000	-0.871639	341.987
304.2000	-0.838655	341.918
304.1000	-0.700484	341.855
304.0000	-0.63688	341.817
303.9000	-0.616666	341.729
303.8000	-0.57262	341.646
303.7000	-0.45315	341.593
303.6000	-0.450079	341.485
303.5000	-0.453768	341.411
303.4000	-0.524056	341.317
303.3000	-0.630715	341.194
303.2000	-0.66547	341.078
303.1000	-0.680301	340.986
303.0000	-0.686777	340.929
302.9000	-0.740955	340.831
302.8000	-0.729238	340.752
302.7000	-0.767942	340.689
302.6000	-0.786563	340.597
302.5000	-0.732283	340.545
302.4000	-0.683866	340.485
302.3000	-0.693828	340.384
302.2000	-0.726902	340.289
302.1000	-0.754459	340.197
302.0000	-0.834675	340.134
301.9000	-0.811876	340.043
301.8000	-0.844439	339.961
301.7000	-0.905714	339.896
301.6000	-0.914514	339.8
301.5000	-0.906767	339.746
301.4000	-0.840772	339.694
301.3000	-0.757277	339.612
301.2000	-0.679412	339.537
301.1000	-0.654434	339.472
301.0000	-0.647359	339.439
300.9000	-0.631971	339.361
300.8000	-0.639543	339.283
300.7000	-0.72746	339.22
300.6000	-0.775666	339.136
300.5000	-0.860484	339.069
300.4000	-0.960254	339.019
300.3000	-0.973853	338.942
300.2000	-0.969578	338.865
300.1000	-0.968718	338.801
300.0000	-0.963676	338.734
299.9000	-0.886961	338.678
299.8000	-0.822373	338.625
299.7000	-0.821853	338.555
299.6000	-0.743021	338.492
299.5000	-0.668769	338.43
299.4000	-0.682744	338.379
299.3000	-0.714977	338.309
299.2000	-0.655671	338.257
299.1000	-0.681573	338.215
299.0000	-0.675834	338.148
298.9000	-0.644837	338.096
298.8000	-0.576701	338.059
298.7000	-0.627439	337.996
298.6000	-0.68597	337.943
298.5000	-0.737405	337.888
298.4000	-0.765389	337.819
298.3000	-0.764476	337.757
298.2000	-0.744105	337.692
298.1000	-0.749145	337.626
298.0000	-0.811655	337.564
297.9000	-0.778529	337.513
297.8000	-0.726888	337.441
297.7000	-0.565593	337.387
297.6000	-0.471969	337.344
297.5000	-0.460633	337.275
297.4000	-0.537149	337.223
297.3000	-0.60801	337.178
297.2000	-0.5926	337.106
297.1000	-0.586585	337.051
297.0000	-0.603926	336.999
296.9000	-0.71234	336.923
296.8000	-0.818121	336.862
296.7000	-0.903118	336.815
296.6000	-0.842675	336.783
296.5000	-0.817694	336.733
296.4000	-0.845398	336.694
296.3000	-0.85911	336.663
296.2000	-0.881955	336.618
296.1000	-0.847162	336.58
296.0000	-0.754921	336.554
295.9000	-0.689431	336.509
295.8000	-0.624556	336.444
295.7000	-0.559668	336.402
295.6000	-0.511063	336.354
295.5000	-0.467956	336.29
295.4000	-0.473097	336.216
295.3000	-0.467787	336.172
295.2000	-0.51565	336.11
295.1000	-0.581101	336.034
295.0000	-0.63021	335.991
294.9000	-0.754361	335.93
294.8000	-0.775284	335.858
294.7000	-0.753264	335.813
294.6000	-0.749473	335.772
294.5000	-0.74811	335.712
294.4000	-0.742877	335.668
294.3000	-0.716678	335.638
294.2000	-0.707678	335.581
294.1000	-0.638859	335.541
294.0000	-0.64244	335.512
293.9000	-0.704654	335.461
293.8000	-0.702528	335.428
293.7000	-0.764913	335.402
293.6000	-0.764786	335.351
293.5000	-0.760774	335.288
293.4000	-0.730049	335.258
293.3000	-0.67336	335.217
293.2000	-0.639649	335.164
293.1000	-0.605261	335.138
293.0000	-0.583446	335.09
292.9000	-0.504939	335.04
292.8000	-0.501178	335.017
292.7000	-0.477185	334.991
292.6000	-0.470346	334.947
292.5000	-0.578216	334.884
292.4000	-0.64758	334.845
292.3000	-0.591444	334.794
292.2000	-0.583005	334.742
292.1000	-0.663446	334.711
292.0000	-0.734648	334.664
291.9000	-0.724869	334.609
291.8000	-0.70814	334.563
291.7000	-0.648765	334.547
291.6000	-0.541979	334.507
291.5000	-0.556588	334.46
291.4000	-0.518358	334.438
291.3000	-0.481003	334.385
291.2000	-0.457758	334.316
291.1000	-0.474689	334.248
291.0000	-0.495708	334.198
290.9000	-0.508928	334.123
290.8000	-0.517723	334.029
290.7000	-0.497666	333.932
290.6000	-0.585069	333.819
290.5000	-0.644773	333.685
290.4000	-0.652417	333.551
290.3000	-0.638664	333.433
290.2000	-0.669918	333.287
290.1000	-0.761879	333.128
290.0000	-0.847288	332.983
289.9000	-0.911523	332.879
289.8000	-0.902373	332.784
289.7000	-0.899139	332.712
289.6000	-0.884365	332.678
289.5000	-0.90773	332.681
289.4000	-0.912859	332.713
289.3000	-0.835373	332.781
289.2000	-0.794535	332.868
289.1000	-0.749182	332.979
289.0000	-0.742811	333.084
288.9000	-0.67309	333.191
288.8000	-0.664822	333.287
288.7000	-0.649697	333.372
288.6000	-0.559679	333.437
288.5000	-0.575961	333.482
288.4000	-0.624242	333.51
288.3000	-0.624998	333.529
288.2000	-0.65042	333.525
288.1000	-0.704219	333.514
288.0000	-0.7638	333.489
287.9000	-0.816266	333.451
287.8000	-0.882499	333.424
287.7000	-0.928723	333.393
287.6000	-0.876038	333.37
287.5000	-0.883635	333.332
287.4000	-0.880746	333.312
287.3000	-0.834665	333.292
287.2000	-0.844527	333.272
287.1000	-0.790334	333.257
287.0000	-0.739234	333.219
286.9000	-0.627147	333.202
286.8000	-0.58424	333.187
286.7000	-0.591315	333.167
286.6000	-0.538538	333.143
286.5000	-0.568745	333.132
286.4000	-0.482333	333.127
286.3000	-0.451769	333.123
286.2000	-0.501606	333.115
286.1000	-0.543079	333.1
286.0000	-0.566993	333.099
285.9000	-0.528637	333.09
285.8000	-0.496684	333.088
285.7000	-0.479332	333.058
285.6000	-0.541097	333.032
285.5000	-0.592082	333.03
285.4000	-0.58964	333.03
285.3000	-0.56105	333.036
285.2000	-0.602721	333.01
285.1000	-0.626164	332.994
285.0000	-0.667108	332.997
284.9000	-0.656076	332.992
284.8000	-0.615321	332.993
284.7000	-0.603522	332.964
284.6000	-0.587581	332.942
284.5000	-0.602449	332.94
284.4000	-0.549713	332.944
284.3000	-0.535884	332.954
284.2000	-0.513614	332.934
284.1000	-0.581461	332.922
284.0000	-0.663714	332.897
283.9000	-0.639139	332.897
283.8000	-0.587193	332.908
283.7000	-0.521263	332.894
283.6000	-0.563375	332.878
283.5000	-0.570567	332.858
283.4000	-0.626367	332.847
283.3000	-0.620075	332.859
283.2000	-0.621775	332.872
283.1000	-0.688246	332.88
283.0000	-0.74558	332.87
282.9000	-0.850781	332.862
282.8000	-0.862758	332.858
282.7000	-0.900499	332.873
282.6000	-0.899266	332.889
282.5000	-0.894004	332.891
282.4000	-0.868599	332.888
282.3000	-0.80355	332.887
282.2000	-0.760133	332.886
282.1000	-0.720822	332.905
282.0000	-0.665544	332.923
281.9000	-0.599593	332.929
281.8000	-0.557545	332.925
281.7000	-0.565358	332.917
281.6000	-0.593541	332.912
281.5000	-0.574049	332.907
281.4000	-0.569392	332.922
281.3000	-0.566055	332.927
281.2000	-0.572049	332.921
281.1000	-0.59051	332.911
281.0000	-0.610947	332.9
280.9000	-0.588448	332.894
280.8000	-0.570665	332.884
280.7000	-0.592365	332.876
280.6000	-0.608362	332.875
280.5000	-0.644514	332.863
280.4000	-0.678274	332.852
280.3000	-0.689101	332.842
280.2000	-0.732765	332.833
280.1000	-0.72022	332.824
280.0000	-0.67311	332.818
279.9000	-0.672678	332.807
279.8000	-0.665805	332.783
279.7000	-0.668386	332.775
279.6000	-0.692647	332.768
279.5000	-0.71598	332.761
279.4000	-0.710795	332.757
279.3000	-0.742024	332.751
279.2000	-0.803283	332.747
279.1000	-0.763294	332.75
279.0000	-0.729413	332.756
278.9000	-0.712673	332.749
278.8000	-0.684492	332.758
278.7000	-0.64466	332.769
278.6000	-0.571124	332.783
278.5000	-0.544057	332.801
278.4000	-0.506257	332.817
278.3000	-0.511796	332.832
278.2000	-0.540508	332.845
278.1000	-0.47774	332.859
278.0000	-0.421834	332.859
277.9000	-0.38403	332.851
277.8000	-0.41853	332.843
277.7000	-0.414256	332.839
277.6000	-0.413996	332.853
277.5000	-0.364799	332.868
277.4000	-0.362938	332.881
277.3000	-0.385711	332.897
277.2000	-0.388347	332.912
277.1000	-0.408504	332.93
277.0000	-0.435394	332.949
276.9000	-0.423023	332.966
276.8000	-0.379878	332.967
276.7000	-0.368591	332.967
276.6000	-0.392828	332.967
276.5000	-0.400797	332.975
276.4000	-0.397771	332.981
276.3000	-0.363927	332.986
276.2000	-0.315311	332.99
276.1000	-0.340712	332.992
276.0000	-0.405318	333.014
275.9000	-0.442194	333.032
275.8000	-0.432957	333.047
275.7000	-0.355437	333.064
275.6000	-0.353806	333.081
275.5000	-0.380867	333.1
275.4000	-0.413085	333.122
275.3000	-0.404051	333.143
275.2000	-0.353733	333.148
275.1000	-0.336762	333.149
275.0000	-0.309657	333.155
274.9000	-0.351144	333.157
274.8000	-0.394474	333.156
274.7000	-0.356285	333.159
274.6000	-0.306686	333.164
274.5000	-0.281675	333.169
274.4000	-0.356941	333.174
274.3000	-0.442528	333.182
274.2000	-0.517367	333.188
274.1000	-0.581946	333.198
274.0000	-0.58878	333.214
273.9000	-0.697314	333.228
273.8000	-0.785613	333.238
273.7000	-0.864196	333.247
273.6000	-0.900756	333.258
273.5000	-0.924188	333.274
273.4000	-0.957053	333.288
273.3000	-0.93011	333.31
273.2000	-0.919801	333.327
273.1000	-0.88235	333.338
273.0000	-0.817873	333.351
272.9000	-0.772551	333.37
272.8000	-0.741171	333.393
272.7000	-0.607876	333.416
272.6000	-0.448504	333.438
272.5000	-0.384162	333.452
272.4000	-0.373363	333.465
272.3000	-0.349402	333.482
272.2000	-0.31231	333.506
272.1000	-0.311227	333.529
272.0000	-0.285149	333.552
271.9000	-0.330788	333.57
271.8000	-0.386526	333.585
271.7000	-0.450497	333.6
271.6000	-0.455404	333.613
271.5000	-0.408235	333.63
271.4000	-0.456215	333.645
271.3000	-0.464432	333.654
271.2000	-0.4687	333.654
271.1000	-0.443657	333.656
271.0000	-0.417927	333.66
270.9000	-0.461095	333.644
270.8000	-0.520325	333.63
270.7000	-0.657947	333.611
270.6000	-0.737954	333.591
270.5000	-0.79045	333.568
270.4000	-0.816215	333.553
270.3000	-0.875844	333.536
270.2000	-0.922778	333.526
270.1000	-0.852483	333.535
270.0000	-0.722422	333.55
269.9000	-0.607197	333.57
269.8000	-0.557524	333.594
269.7000	-0.579059	333.615
269.6000	-0.622835	333.64
269.5000	-0.571726	333.67
269.4000	-0.514117	333.689
269.3000	-0.472255	333.709
269.2000	-0.501724	333.727
269.1000	-0.593561	333.745
269.0000	-0.589581	333.755
268.9000	-0.53331	333.777
268.8000	-0.513272	333.799
268.7000	-0.552232	333.827
268.6000	-0.557024	333.857
268.5000	-0.550815	333.901
268.4000	-0.56808	333.947
268.3000	-0.467399	333.98
268.2000	-0.418023	334.019
268.1000	-0.421385	334.054
268.0000	-0.33096	334.106
267.9000	-0.287242	334.15
267.8000	-0.273384	334.195
267.7000	-0.314277	334.228
267.6000	-0.448055	334.259
267.5000	-0.585171	334.3
267.4000	-0.612706	334.338
267.3000	-0.611731	334.383
267.2000	-0.5745	334.417
267.1000	-0.570231	334.451
267.0000	-0.551499	334.488
266.9000	-0.582247	334.529
266.8000	-0.524383	334.572
266.7000	-0.446361	334.605
266.6000	-0.433633	334.65
266.5000	-0.468867	334.697
266.4000	-0.485977	334.755
266.3000	-0.527318	334.815
266.2000	-0.539171	334.878
266.1000	-0.498679	334.944
266.0000	-0.459645	334.999
265.9000	-0.439948	335.062
265.8000	-0.415913	335.128
265.7000	-0.44104	335.193
265.6000	-0.388295	335.262
265.5000	-0.258246	335.332
265.4000	-0.216656	335.384
265.3000	-0.233092	335.435
265.2000	-0.225507	335.502
265.1000	-0.223749	335.576
265.0000	-0.176152	335.646
264.9000	-0.122335	335.716
264.8000	-0.113104	335.76
264.7000	-0.151101	335.806
264.6000	-0.223589	335.861
264.5000	-0.237965	335.928
264.4000	-0.145356	336.006
264.3000	-0.108336	336.061
264.2000	-0.119567	336.119
264.1000	-0.170618	336.189
264.0000	-0.185121	336.274
263.9000	-0.267761	336.353
263.8000	-0.265929	336.418
263.7000	-0.256562	336.482
263.6000	-0.379501	336.535
263.5000	-0.452593	336.604
263.4000	-0.482926	336.689
263.3000	-0.519265	336.747
263.2000	-0.564543	336.807
263.1000	-0.52743	336.878
263.0000	-0.519636	336.957
262.9000	-0.567241	337.023
262.8000	-0.538173	337.099
262.7000	-0.499459	337.182
262.6000	-0.463512	337.261
262.5000	-0.449448	337.351
262.4000	-0.448209	337.428
262.3000	-0.487116	337.496
262.2000	-0.513545	337.559
262.1000	-0.493346	337.645
262.0000	-0.529887	337.717
261.9000	-0.660268	337.781
261.8000	-0.697297	337.842
261.7000	-0.726153	337.886
261.6000	-0.727562	337.942
261.5000	-0.713163	338.014
261.4000	-0.688072	338.097
261.3000	-0.703377	338.163
261.2000	-0.693069	338.23
261.1000	-0.599472	338.307
261.0000	-0.558263	338.388
260.9000	-0.572575	338.466
260.8000	-0.605038	338.552
260.7000	-0.567657	338.641
260.6000	-0.590172	338.711
260.5000	-0.608945	338.783
260.4000	-0.630229	338.865
260.3000	-0.562555	338.947
260.2000	-0.537287	339.016
260.1000	-0.472081	339.099
260.0000	-0.412511	339.185
259.9000	-0.412498	339.249
259.8000	-0.364531	339.326
259.7000	-0.314318	339.418
259.6000	-0.264965	339.5
259.5000	-0.314511	339.577
259.4000	-0.334635	339.664
259.3000	-0.372374	339.743
259.2000	-0.386557	339.828
259.1000	-0.289841	339.928
259.0000	-0.305969	340.008
258.9000	-0.323372	340.08
258.8000	-0.29835	340.165
258.7000	-0.260499	340.246
258.6000	-0.290879	340.333
258.5000	-0.352047	340.419
258.4000	-0.343786	340.491
258.3000	-0.407333	340.563
258.2000	-0.411763	340.653
258.1000	-0.37662	340.746
258.0000	-0.34484	340.847
257.9000	-0.374785	340.952
257.8000	-0.327039	341.049
257.7000	-0.275676	341.144
257.6000	-0.274745	341.258
257.5000	-0.298735	341.361
257.4000	-0.294892	341.467
257.3000	-0.278187	341.575
257.2000	-0.325719	341.674
257.1000	-0.30291	341.764
257.0000	-0.361445	341.846
256.9000	-0.393953	341.933
256.8000	-0.378388	342.005
256.7000	-0.347628	342.077
256.6000	-0.351441	342.142
256.5000	-0.406648	342.201
256.4000	-0.428808	342.265
256.3000	-0.442748	342.328
256.2000	-0.428722	342.404
256.1000	-0.458399	342.482
256.0000	-0.477381	342.558
255.9000	-0.506083	342.645
255.8000	-0.508499	342.736
255.7000	-0.574283	342.83
255.6000	-0.590034	342.921
255.5000	-0.61664	343.008
255.4000	-0.692129	343.098
255.3000	-0.685427	343.185
255.2000	-0.726694	343.271
255.1000	-0.734545	343.348
255.0000	-0.681666	343.434
254.9000	-0.543524	343.51
254.8000	-0.445004	343.595
254.7000	-0.427932	343.697
254.6000	-0.445394	343.788
254.5000	-0.432104	343.882
254.4000	-0.432464	343.969
254.3000	-0.368021	344.062
254.2000	-0.381007	344.144
254.1000	-0.44423	344.246
254.0000	-0.515515	344.348
253.9000	-0.516851	344.441
253.8000	-0.508	344.519
253.7000	-0.465809	344.601
253.6000	-0.414245	344.68
253.5000	-0.379265	344.77
253.4000	-0.333368	344.864
253.3000	-0.3241	344.951
253.2000	-0.302088	345.021
253.1000	-0.241152	345.097
253.0000	-0.163467	345.183
252.9000	-0.00290655	345.281
252.8000	0.0361364	345.373
252.7000	0.00996219	345.466
252.6000	-0.0982188	345.545
252.5000	-0.107927	345.628
252.4000	-0.126143	345.713
252.3000	-0.178019	345.802
252.2000	-0.284128	345.877
252.1000	-0.411464	345.951
252.0000	-0.50206	346.023
251.9000	-0.551851	346.088
251.8000	-0.552503	346.164
251.7000	-0.562614	346.242
251.6000	-0.55094	346.337
251.5000	-0.588496	346.421
251.4000	-0.584353	346.519
251.3000	-0.63685	346.611
251.2000	-0.591563	346.695
251.1000	-0.539755	346.789
251.0000	-0.447276	346.887
250.9000	-0.379618	346.994
250.8000	-0.368479	347.077
250.7000	-0.414175	347.159
250.6000	-0.473159	347.231
250.5000	-0.412636	347.302
250.4000	-0.40967	347.395
250.3000	-0.394719	347.494
250.2000	-0.370018	347.595
250.1000	-0.389314	347.678
250.0000	-0.360253	347.76
249.9000	-0.334255	347.843
249.8000	-0.241745	347.927
249.7000	-0.174442	348.026
249.6000	-0.150233	348.125
249.5000	-0.162625	348.213
249.4000	-0.247949	348.302
249.3000	-0.281486	348.397
249.2000	-0.401841	348.49
249.1000	-0.463164	348.594
249.0000	-0.468753	348.712
248.9000	-0.530414	348.822
248.8000	-0.548818	348.927
248.7000	-0.569546	349.026
248.6000	-0.582126	349.117
248.5000	-0.621172	349.201
248.4000	-0.586404	349.294
248.3000	-0.515814	349.383
248.2000	-0.482777	349.472
248.1000	-0.48	349.554
248.0000	-0.461266	349.634
247.9000	-0.497026	349.714
247.8000	-0.509954	349.793
247.7000	-0.439761	349.878
247.6000	-0.331561	349.974
247.5000	-0.249594	350.07
247.4000	-0.268837	350.147
247.3000	-0.267852	350.212
247.2000	-0.275165	350.296
247.1000	-0.245504	350.381
247.0000	-0.189665	350.465
246.9000	-0.0858161	350.563
246.8000	-0.0860199	350.649
246.7000	-0.0695874	350.727
246.6000	-0.0672714	350.809
246.5000	-0.034744	350.912
246.4000	0.0311981	351.004
246.3000	0.073184	351.085
246.2000	0.0666306	351.165
246.1000	-0.00352961	351.246
246.0000	-0.067982	351.323
245.9000	-0.0720085	351.407
245.8000	-0.104848	351.493
245.7000	-0.140699	351.582
245.6000	-0.155402	351.672
245.5000	-0.21713	351.765
245.4000	-0.209366	351.861
245.3000	-0.224872	351.952
245.2000	-0.239886	352.055
245.1000	-0.252441	352.158
245.0000	-0.193101	352.258
244.9000	-0.175035	352.348
244.8000	-0.187759	352.434
244.7000	-0.267843	352.534
244.6000	-0.313424	352.646
244.5000	-0.343663	352.758
244.4000	-0.386566	352.854
244.3000	-0.476278	352.946
244.2000	-0.598326	353.042
244.1000	-0.614323	353.15
244.0000	-0.606581	353.264
243.9000	-0.522771	353.373
243.8000	-0.481746	353.47
243.7000	-0.492491	353.568
243.6000	-0.449774	353.675
243.5000	-0.482343	353.788
243.4000	-0.513054	353.905
243.3000	-0.578891	354.019
243.2000	-0.546896	354.137
243.1000	-0.628124	354.258
243.0000	-0.632706	354.378
242.9000	-0.604025	354.496
242.8000	-0.61538	354.61
242.7000	-0.563424	354.725
242.6000	-0.48631	354.836
242.5000	-0.476159	354.94
242.4000	-0.481738	355.056
242.3000	-0.476915	355.167
242.2000	-0.521223	355.276
242.1000	-0.529456	355.39
242.0000	-0.501244	355.508
241.9000	-0.515335	355.628
241.8000	-0.581393	355.743
241.7000	-0.564458	355.871
241.6000	-0.541413	355.988
241.5000	-0.58705	356.094
241.4000	-0.577175	356.204
241.3000	-0.559491	356.32
241.2000	-0.602149	356.434
241.1000	-0.581774	356.55
241.0000	-0.535232	356.675
240.9000	-0.504412	356.797
240.8000	-0.452048	356.921
240.7000	-0.440177	357.054
240.6000	-0.398896	357.186
240.5000	-0.462423	357.311
240.4000	-0.515665	357.444
240.3000	-0.560167	357.59
240.2000	-0.623898	357.731
240.1000	-0.594745	357.872
240.0000	-0.61193	358.012
239.9000	-0.683001	358.156
239.8000	-0.650408	358.302
239.7000	-0.601057	358.452
239.6000	-0.495339	358.605
239.5000	-0.430642	358.751
239.4000	-0.388941	358.898
239.3000	-0.456834	359.044
239.2000	-0.49446	359.197
239.1000	-0.465929	359.356
239.0000	-0.503341	359.509
238.9000	-0.561306	359.669
238.8000	-0.583306	359.824
238.7000	-0.607622	359.975
238.6000	-0.660111	360.117
238.5000	-0.607993	360.265
238.4000	-0.524322	360.41
238.3000	-0.501002	360.548
238.2000	-0.539972	360.689
238.1000	-0.547653	360.835
238.0000	-0.599896	360.983
237.9000	-0.644454	361.145
237.8000	-0.687176	361.308
237.7000	-0.722051	361.471
237.6000	-0.829468	361.639
237.5000	-0.929688	361.813
237.4000	-0.948012	361.988
237.3000	-0.957111	362.158
237.2000	-0.951595	362.332
237.1000	-0.898109	362.498
237.0000	-0.782074	362.667
236.9000	-0.727335	362.84
236.8000	-0.666869	363.009
236.7000	-0.577371	363.177
236.6000	-0.445123	363.339
236.5000	-0.39313	363.504
236.4000	-0.413347	363.663
236.3000	-0.440113	363.827
236.2000	-0.532556	363.995
236.1000	-0.528587	364.163
236.0000	-0.517685	364.332
235.9000	-0.53895	364.502
235.8000	-0.595767	364.678
235.7000	-0.644053	364.848
235.6000	-0.650399	365.017
235.5000	-0.613541	365.193
235.4000	-0.671624	365.363
235.3000	-0.741176	365.524
235.2000	-0.86152	365.684
235.1000	-0.972428	365.847
235.0000	-1.11085	366.006
234.9000	-1.22828	366.166
234.8000	-1.27486	366.34
234.7000	-1.39858	366.517
234.6000	-1.44304	366.691
234.5000	-1.37512	366.878
234.4000	-1.34957	367.075
234.3000	-1.33399	367.268
234.2000	-1.29208	367.465
234.1000	-1.21139	367.67
234.0000	-1.23741	367.863
233.9000	-1.26971	368.055
233.8000	-1.21246	368.254
233.7000	-1.23932	368.446
233.6000	-1.311	368.637
233.5000	-1.34704	368.83
233.4000	-1.31285	369.021
233.3000	-1.25551	369.21
233.2000	-1.19394	369.407
233.1000	-1.10178	369.599
233.0000	-0.996215	369.797
232.9000	-1.0159	369.989
232.8000	-0.89559	370.184
232.7000	-0.788747	370.379
232.6000	-0.779649	370.577
232.5000	-0.815311	370.784
232.4000	-0.816114	370.984
232.3000	-0.80294	371.193
232.2000	-0.767145	371.392
232.1000	-0.728863	371.596
232.0000	-0.816022	371.801
231.9000	-0.890841	372.01
231.8000	-0.958031	372.213
231.7000	-1.0128	372.419
231.6000	-1.01722	372.628
231.5000	-1.02823	372.829
231.4000	-1.12844	373.029
231.3000	-1.08269	373.236
231.2000	-1.05351	373.444
231.1000	-1.1039	373.642
231.0000	-1.09706	373.836
230.9000	-1.09716	374.031
230.8000	-1.14491	374.219
230.7000	-1.19678	374.421
230.6000	-1.17406	374.628
230.5000	-1.25687	374.835
230.4000	-1.32948	375.035
230.3000	-1.2507	375.25
230.2000	-1.29321	375.462
230.1000	-1.3426	375.683
230.0000	-1.3336	375.902
229.9000	-1.36663	376.109
229.8000	-1.45956	376.309
229.7000	-1.56886	376.501
229.6000	-1.64153	376.696
229.5000	-1.67215	376.881
229.4000	-1.68193	377.061
229.3000	-1.65445	377.238
229.2000	-1.65785	377.411
229.1000	-1.61706	377.593
229.0000	-1.52746	377.782
228.9000	-1.39449	377.974
228.8000	-1.34007	378.162
228.7000	-1.35263	378.365
228.6000	-1.40086	378.579
228.5000	-1.41108	378.8
228.4000	-1.31629	379.04
228.3000	-1.26455	379.278
228.2000	-1.41425	379.506
228.1000	-1.69393	379.738
228.0000	-1.86864	379.979
227.9000	-1.90365	380.219
227.8000	-1.96831	380.449
227.7000	-2.04849	380.685
227.6000	-2.1766	380.91
227.5000	-2.24827	381.134
227.4000	-2.27361	381.363
227.3000	-2.12527	381.6
227.2000	-1.92698	381.836
227.1000	-1.88165	382.068
227.0000	-1.85241	382.298
226.9000	-1.80149	382.521
226.8000	-1.74625	382.747
226.7000	-1.72573	382.965
226.6000	-1.69909	383.185
226.5000	-1.74754	383.394
226.4000	-1.79622	383.6
226.3000	-1.75721	383.811
226.2000	-1.71779	384.025
226.1000	-1.77807	384.234
226.0000	-1.84864	384.439
225.9000	-1.84224	384.646
225.8000	-1.75585	384.853
225.7000	-1.6923	385.065
225.6000	-1.62857	385.282
225.5000	-1.69905	385.494
225.4000	-1.69663	385.704
225.3000	-1.66544	385.922
225.2000	-1.65313	386.143
225.1000	-1.59869	386.367
225.0000	-1.5954	386.589
224.9000	-1.57924	386.812
224.8000	-1.57	387.034
224.7000	-1.49279	387.255
224.6000	-1.41524	387.475
224.5000	-1.39462	387.693
224.4000	-1.28609	387.91
224.3000	-1.20396	388.126
224.2000	-1.24533	388.341
224.1000	-1.30876	388.555
224.0000	-1.3557	388.766
223.9000	-1.43808	388.98
223.8000	-1.5823	389.194
223.7000	-1.61527	389.413
223.6000	-1.52867	389.635
223.5000	-1.5905	389.856
223.4000	-1.67064	390.076
223.3000	-1.70799	390.287
223.2000	-1.81953	390.499
223.1000	-1.91696	390.713
223.0000	-1.89041	390.935
222.9000	-1.87578	391.153
222.8000	-1.91936	391.368
222.7000	-1.88854	391.583
222.6000	-1.84535	391.8
222.5000	-1.78425	392.024
222.4000	-1.65528	392.244
222.3000	-1.53257	392.464
222.2000	-1.44978	392.681
222.1000	-1.46615	392.892
222.0000	-1.56332	393.104
221.9000	-1.70184	393.308
221.8000	-1.80594	393.515
221.7000	-1.81422	393.723
221.6000	-1.71465	393.942
221.5000	-1.5881	394.165
221.4000	-1.61701	394.374
221.3000	-1.6332	394.587
221.2000	-1.61661	394.802
221.1000	-1.64384	395.019
221.0000	-1.70473	395.232
220.9000	-1.65023	395.452
220.8000	-1.82796	395.665
220.7000	-2.02082	395.871
220.6000	-2.04599	396.088
220.5000	-2.02972	396.309
220.4000	-1.95965	396.524
220.3000	-1.80477	396.745
220.2000	-1.67667	396.971
220.1000	-1.598	397.195
220.0000	-1.60109	397.414
219.9000	-1.53116	397.641
219.8000	-1.51384	397.865
219.7000	-1.50734	398.086
219.6000	-1.42765	398.306
219.5000	-1.41507	398.526
219.4000	-1.42198	398.749
219.3000	-1.53664	398.963
219.2000	-1.53191	399.186
219.1000	-1.56921	399.404
219.0000	-1.60851	399.623
218.9000	-1.70328	399.839
218.8000	-1.8666	400.06
218.7000	-2.02093	400.277
218.6000	-2.17286	400.493
218.5000	-2.11236	400.715
218.4000	-2.12155	400.935
218.3000	-2.09534	401.152
218.2000	-1.99553	401.375
218.1000	-1.78468	401.6
218.0000	-1.56201	401.83
217.9000	-1.39873	402.057
217.8000	-1.18004	402.28
217.7000	-1.15516	402.502
217.6000	-1.17098	402.72
217.5000	-1.20271	402.942
217.4000	-1.1971	403.159
217.3000	-1.31289	403.373
217.2000	-1.49254	403.587
217.1000	-1.54452	403.805
217.0000	-1.57717	404.024
216.9000	-1.56302	404.25
216.8000	-1.61002	404.471
216.7000	-1.61594	404.687
216.6000	-1.57077	404.914
216.5000	-1.46392	405.142
216.4000	-1.4064	405.361
216.3000	-1.43868	405.573
216.2000	-1.63195	405.785
216.1000	-1.81793	405.994
216.0000	-1.8574	406.205
215.9000	-1.84777	406.42
215.8000	-2.04549	406.628
215.7000	-2.32592	406.837
215.6000	-2.61033	407.05
215.5000	-2.60775	407.278
215.4000	-2.62895	407.503
215.3000	-2.55081	407.73
215.2000	-2.4404	407.958
215.1000	-2.39961	408.194
215.0000	-2.37559	408.43
214.9000	-2.31432	408.668
214.8000	-2.12019	408.906
214.7000	-1.79351	409.152
214.6000	-1.55098	409.396
214.5000	-1.44459	409.638
214.4000	-1.52682	409.877
214.3000	-1.63457	410.111
214.2000	-1.55624	410.349
214.1000	-1.46231	410.586
214.0000	-1.2878	410.826
213.9000	-1.31833	411.062
213.8000	-1.43218	411.296
213.7000	-1.59214	411.531
213.6000	-1.46843	411.777
213.5000	-1.33017	412.027
213.4000	-1.19672	412.279
213.3000	-1.18777	412.531
213.2000	-1.29426	412.779
213.1000	-1.49744	413.028
213.0000	-1.68345	413.279
212.9000	-1.73508	413.533
212.8000	-1.81403	413.783
212.7000	-1.87585	414.037
212.6000	-1.92921	414.291
212.5000	-1.92926	414.547
212.4000	-1.80527	414.809
212.3000	-1.62503	415.071
212.2000	-1.52263	415.331
212.1000	-1.51704	415.589
212.0000	-1.51579	415.856
211.9000	-1.39614	416.131
211.8000	-1.30874	416.402
211.7000	-1.37042	416.67
211.6000	-1.39342	416.942
211.5000	-1.58776	417.209
211.4000	-1.66178	417.483
211.3000	-1.49278	417.767
211.2000	-1.37714	418.046
211.1000	-1.37618	418.322
211.0000	-1.57347	418.595
210.9000	-1.72408	418.87
210.8000	-1.88713	419.144
210.7000	-1.85788	419.432
210.6000	-1.81273	419.719
210.5000	-1.91508	420.006
210.4000	-2.15436	420.291
210.3000	-2.22384	420.585
210.2000	-2.13109	420.881
210.1000	-1.91263	421.185
210.0000	-1.72936	421.489
209.9000	-1.65049	421.79
209.8000	-1.86979	422.076
209.7000	-1.82776	422.374
209.6000	-1.72213	422.672
209.5000	-1.66483	422.972
209.4000	-1.74626	423.268
209.3000	-1.92466	423.558
209.2000	-2.06059	423.855
209.1000	-2.2235	424.15
209.0000	-2.14937	424.454
208.9000	-2.09519	424.765
208.8000	-2.19407	425.067
208.7000	-2.1805	425.371
208.6000	-2.042	425.688
208.5000	-1.90232	426.006
208.4000	-1.68241	426.324
208.3000	-1.47281	426.646
208.2000	-1.41279	426.967
208.1000	-1.42619	427.284
208.0000	-1.64706	427.594
207.9000	-1.68219	427.91
207.8000	-1.88193	428.223
207.7000	-2.11992	428.534
207.6000	-2.28849	428.853
207.5000	-2.43547	429.17
207.4000	-2.50201	429.486
207.3000	-2.47362	429.806
207.2000	-2.3201	430.128
207.1000	-2.234	430.447
207.0000	-2.17463	430.768
206.9000	-2.05545	431.084
206.8000	-1.91866	431.404
206.7000	-1.77248	431.724
206.6000	-1.72685	432.04
206.5000	-1.6792	432.359
206.4000	-1.4908	432.684
206.3000	-1.31502	433.015
206.2000	-1.12342	433.337
206.1000	-1.07027	433.655
206.0000	-1.01545	433.971
205.9000	-1.12856	434.28
205.8000	-1.04102	434.601
205.7000	-0.951982	434.921
205.6000	-1.06943	435.237
205.5000	-1.24395	435.552
205.4000	-1.49628	435.868
205.3000	-1.60485	436.192
205.2000	-1.65341	436.521
205.1000	-1.76245	436.853
205.0000	-1.99248	437.176
204.9000	-2.14149	437.506
204.8000	-2.00017	437.844
204.7000	-1.95137	438.183
204.6000	-1.86291	438.521
204.5000	-1.83415	438.86
204.4000	-1.95554	439.195
204.3000	-1.86419	439.536
204.2000	-1.85445	439.882
204.1000	-1.74818	440.231
204.0000	-1.86498	440.576
203.9000	-1.98119	440.919
203.8000	-1.8846	441.271
203.7000	-1.69576	441.63
203.6000	-1.45122	441.994
203.5000	-1.1976	442.358
203.4000	-1.04426	442.719
203.3000	-1.16097	443.077
203.2000	-1.22877	443.437
203.1000	-1.10597	443.809
203.0000	-1.06495	444.183
202.9000	-0.98579	444.56
202.8000	-0.935115	444.934
202.7000	-0.890289	445.315
202.6000	-0.878097	445.694
202.5000	-0.766783	446.075
202.4000	-0.654487	446.456
202.3000	-0.602594	446.84
202.2000	-0.533198	447.222
202.1000	-0.53001	447.603
202.0000	-0.609994	447.987
201.9000	-0.570429	448.38
201.8000	-0.648998	448.776
201.7000	-0.410765	449.188
201.6000	-0.176303	449.605
201.5000	0.153825	450.027
201.4000	0.303178	450.449
201.3000	0.514354	450.88
201.2000	0.453723	451.304
201.1000	0.319781	451.732
201.0000	0.323241	452.166
200.9000	0.0803415	452.596
200.8000	-0.270839	453.031
200.7000	-0.630407	453.475
200.6000	-0.764129	453.935
200.5000	-0.697047	454.412
200.4000	-0.277446	454.909
200.3000	0.0132562	455.409
200.2000	0.257264	455.914
200.1000	0.587004	456.425
200.0000	0.825127	456.934
199.9000	1.0343	457.442
199.8000	0.990021	457.933
199.7000	0.924105	458.417
199.6000	0.588169	458.892
199.5000	0.0719872	459.364
199.4000	-0.213486	459.848
199.3000	-0.342852	460.339
199.2000	-0.348126	460.844
199.1000	-0.113368	461.359
199.0000	-0.0590962	461.886
198.9000	-0.0727724	462.429
198.8000	0.187725	462.996
198.7000	0.77833	463.588
198.6000	1.19279	464.19
198.5000	1.44004	464.804
198.4000	1.54448	465.426
198.3000	1.5844	466.067
198.2000	1.54503	466.727
198.1000	1.67964	467.417
198.0000	1.6735	468.129
197.9000	1.32454	468.847
197.8000	1.08725	469.585
197.7000	0.875303	470.337
197.6000	1.0041	471.112
197.5000	1.02616	471.886
197.4000	1.1928	472.652
197.3000	1.4766	473.404
197.2000	1.72184	474.12
197.1000	1.95967	474.811
197.0000	2.28265	475.489
196.9000	2.47095	476.156
196.8000	2.33719	476.812
196.7000	2.29563	477.485
196.6000	2.2874	478.185
196.5000	2.24097	478.92
196.4000	2.40646	479.716
196.3000	2.28958	480.558
196.2000	2.41818	481.464
196.1000	2.51982	482.428
196.0000	2.99553	483.466
195.9000	3.4517	484.588
195.8000	3.73568	485.806
195.7000	3.56928	487.117
195.6000	3.3135	488.535
195.5000	3.29114	490.066
195.4000	3.49188	491.684
195.3000	3.60525	493.348
195.2000	3.71616	495.037
195.1000	3.55445	496.691
195.0000	3.56599	498.262
194.9000	3.83486	499.698
194.8000	4.09763	500.972
194.7000	4.05106	502.072
194.6000	3.84375	503.047
194.5000	3.7368	503.935
194.4000	3.69945	504.777
194.3000	3.86484	505.607
194.2000	3.76272	506.489
194.1000	3.59995	507.492
194.0000	3.92457	508.684
193.9000	4.24187	510.094
193.8000	4.24032	511.72
193.7000	4.07081	513.611
193.6000	4.24833	515.791
193.5000	4.10319	518.298
193.4000	4.0544	521.165
193.3000	4.01284	524.377
193.2000	4.13146	527.896
193.1000	4.24806	531.63
193.0000	4.56688	535.504
192.9000	4.73298	539.369
192.8000	4.85656	543.103
192.7000	4.7717	546.517
192.6000	4.54924	549.435
192.5000	4.3615	551.786
192.4000	4.49148	553.635
192.3000	4.17959	555.038
192.2000	4.01987	556.101
192.1000	4.23974	556.939
192.0000	4.30935	557.697
191.9000	4.44505	558.575
191.8000	4.86726	559.816
191.7000	5.09167	561.569
191.6000	4.53513	563.862
191.5000	3.72726	566.698
191.4000	2.86957	570.109
191.3000	2.44052	574.192
191.2000	2.47895	578.956
191.1000	2.17232	584.347
191.0000	1.76498	590.247
190.9000	1.38762	596.52
190.8000	1.45496	603.04
190.7000	2.71034	609.67
190.6000	4.46589	616.176
190.5000	5.53555	622.232
190.4000	6.15205	627.576
190.3000	6.01012	632.05
190.2000	6.00049	635.722
190.1000	6.01061	638.718
190.0000	6.80103	641.18

##### Extended Information
[Comments]
Sample name	ACE2_doxer_0.6uM
Comment
User
Division
Company	CSIR-IMTECH

[Detailed Information]
Creation date	4/8/2024 7:01 PM

Data array type	Linear data array * 2
Horizontal axis	Wavelength [nm]
Vertical axis(1)	CD [mdeg]
Vertical axis(2)	HT [V]
Start	350 nm
End	190 nm
Data interval	0.1 nm
Data points	1601    

[Measurement Information]
Instrument Name	JASCO CD
Model Name	J-815
Serial No.	B063061168

Accessory	PTC-423S
Accessory S/N	C013945-01
  Temperature	37.96 C
  Control Sonsor	Cell
  Monitor Sensor	Cell
  Start Mode	Start immediately
  Cell Length	10 mm

Measurement date	4/8/2024 7:01 PM

Photometric Mode	CD, HT
Measure Range	350 - 190 nm
Data pitch	0.1 nm
Sensitivity	Standard
D.I.T.	1 sec
Bandwidth	1.00 nm
Start Mode	Immediately
Scanning Speed	50 nm/min
Baseline Correction	None
Shutter Control	Auto
CD Detector	PMT
PMT Voltage	Auto
Accumulations	3
Concentration	0.27 umol/L

