TITLE	ACE2_Cal_0.6uM
DATA TYPE	
ORIGIN	JASCO
OWNER	
DATE	24/04/09
TIME	16:30:02
SPECTROMETER/DATA SYSTEM	
LOCALE	1033
RESOLUTION	
DELTAX	-0.1
XUNITS	NANOMETERS
YUNITS	CD [mdeg]
Y2UNITS	HT [V]
FIRSTX	  350.0000
LASTX	  190.0000
NPOINTS	    1601
FIRSTY	    -1.33535
MAXY	     6.90814
MINY	    -3.35981
XYDATA
350.0000	-1.33535	477.388
349.9000	-0.933733	476.82
349.8000	-0.56024	475.946
349.7000	-0.278063	475.057
349.6000	-0.0691461	474.42
349.5000	0.16863	473.873
349.4000	0.240444	473.04
349.3000	0.196847	472.441
349.2000	0.131108	471.921
349.1000	0.220278	471.08
349.0000	0.130167	470.457
348.9000	0.0921362	469.909
348.8000	0.0633958	469.076
348.7000	0.0514858	468.229
348.6000	0.0823981	467.608
348.5000	0.29041	467.062
348.4000	0.413185	466.187
348.3000	0.380984	465.537
348.2000	0.214826	464.969
348.1000	0.0953619	464.128
348.0000	0.00808675	463.499
347.9000	-0.0746037	462.949
347.8000	0.0489712	462.128
347.7000	0.241502	461.295
347.6000	0.178122	460.697
347.5000	0.159487	460.202
347.4000	0.290447	459.43
347.3000	0.358759	458.847
347.2000	0.299709	458.341
347.1000	0.349356	457.569
347.0000	0.104936	456.984
346.9000	-0.389728	456.469
346.8000	-0.432522	455.702
346.7000	-0.54269	454.922
346.6000	-0.662003	454.344
346.5000	-0.867789	453.586
346.4000	-0.943091	452.819
346.3000	-1.18395	452.233
346.2000	-1.15231	451.48
346.1000	-0.991035	450.72
346.0000	-1.09526	450.152
345.9000	-0.997637	449.665
345.8000	-0.933903	448.903
345.7000	-0.813727	448.337
345.6000	-0.618995	447.856
345.5000	-0.371273	447.155
345.4000	-0.220009	446.645
345.3000	-0.240551	446.205
345.2000	-0.0383	445.517
345.1000	-0.13804	444.809
345.0000	-0.19937	444.291
344.9000	-0.352387	443.623
344.8000	-0.566025	442.943
344.7000	-0.810522	442.418
344.6000	-1.02067	441.748
344.5000	-0.989408	441.079
344.4000	-0.943051	440.586
344.3000	-0.848051	439.929
344.2000	-0.686536	439.26
344.1000	-0.565559	438.759
344.0000	-0.517378	438.116
343.9000	-0.393318	437.469
343.8000	-0.348383	436.99
343.7000	-0.412293	436.566
343.6000	-0.426266	435.911
343.5000	-0.481195	435.431
343.4000	-0.60785	435.025
343.3000	-0.653966	434.395
343.2000	-0.614802	433.927
343.1000	-0.536442	433.52
343.0000	-0.559761	432.914
342.9000	-0.522464	432.3
342.8000	-0.429029	431.851
342.7000	-0.524686	431.249
342.6000	-0.52945	430.645
342.5000	-0.686254	430.197
342.4000	-0.560739	429.641
342.3000	-0.590163	429.073
342.2000	-0.582936	428.643
342.1000	-0.579224	428.079
342.0000	-0.678306	427.503
341.9000	-0.710192	427.092
341.8000	-0.722381	426.527
341.7000	-0.56574	425.954
341.6000	-0.543972	425.517
341.5000	-0.542983	424.97
341.4000	-0.503599	424.422
341.3000	-0.571302	424.007
341.2000	-0.707848	423.442
341.1000	-0.897178	422.862
341.0000	-0.943566	422.446
340.9000	-0.865033	421.926
340.8000	-0.79344	421.397
340.7000	-0.789383	420.986
340.6000	-1.0304	420.453
340.5000	-1.06393	419.92
340.4000	-0.917449	419.543
340.3000	-0.873442	419.034
340.2000	-0.827387	418.517
340.1000	-0.912537	418.132
340.0000	-0.921893	417.647
339.9000	-0.929134	417.156
339.8000	-0.718612	416.794
339.7000	-0.565887	416.327
339.6000	-0.471696	415.852
339.5000	-0.344714	415.524
339.4000	-0.279594	415.07
339.3000	-0.111517	414.597
339.2000	-0.126281	414.085
339.1000	-0.142959	413.628
339.0000	-0.0828709	413.165
338.9000	-0.161547	412.635
338.8000	-0.262815	412.15
338.7000	-0.171087	411.662
338.6000	-0.145412	411.13
338.5000	-0.131876	410.662
338.4000	-0.169002	410.31
338.3000	-0.0325443	409.865
338.2000	0.0116298	409.409
338.1000	0.10372	409.086
338.0000	0.156444	408.662
337.9000	0.0360775	408.228
337.8000	-0.0892399	407.919
337.7000	-0.220369	407.528
337.6000	-0.203882	407.128
337.5000	-0.25604	406.825
337.4000	-0.366263	406.438
337.3000	-0.420992	406.037
337.2000	-0.370276	405.585
337.1000	-0.35913	405.18
337.0000	-0.399827	404.767
336.9000	-0.367993	404.327
336.8000	-0.378442	403.934
336.7000	-0.383958	403.537
336.6000	-0.303674	403.083
336.5000	-0.261149	402.672
336.4000	-0.230338	402.377
336.3000	-0.237744	401.983
336.2000	-0.145991	401.588
336.1000	0.00536967	401.29
336.0000	-0.0113438	400.905
335.9000	-0.0591953	400.504
335.8000	-0.240002	400.074
335.7000	-0.332289	399.696
335.6000	-0.481928	399.312
335.5000	-0.536294	398.923
335.4000	-0.628356	398.58
335.3000	-0.773519	398.227
335.2000	-0.812753	397.857
335.1000	-0.686976	397.536
335.0000	-0.475042	397.32
334.9000	-0.309387	396.998
334.8000	-0.200335	396.658
334.7000	-0.224175	396.282
334.6000	-0.120017	395.955
334.5000	-0.0684381	395.623
334.4000	0.0196916	395.237
334.3000	0.0821102	394.881
334.2000	-0.0436314	394.513
334.1000	-0.147144	394.127
334.0000	-0.242515	393.791
333.9000	-0.179915	393.554
333.8000	-0.0581567	393.23
333.7000	0.0132666	392.894
333.6000	0.0309342	392.522
333.5000	-0.0488641	392.195
333.4000	-0.0166681	391.866
333.3000	0.00366984	391.518
333.2000	-0.00204509	391.214
333.1000	-0.0757359	390.902
333.0000	-0.226663	390.562
332.9000	-0.393235	390.258
332.8000	-0.421128	389.921
332.7000	-0.333695	389.629
332.6000	-0.263705	389.332
332.5000	-0.234877	389.01
332.4000	-0.308124	388.721
332.3000	-0.378478	388.426
332.2000	-0.401095	388.088
332.1000	-0.282755	387.786
332.0000	-0.237751	387.464
331.9000	-0.247142	387.189
331.8000	-0.337536	386.905
331.7000	-0.379669	386.573
331.6000	-0.311615	386.271
331.5000	-0.173603	385.862
331.4000	-0.133316	385.543
331.3000	-0.15631	385.264
331.2000	-0.183275	384.954
331.1000	-0.235954	384.678
331.0000	-0.366761	384.394
330.9000	-0.371532	384.113
330.8000	-0.415936	383.867
330.7000	-0.529888	383.576
330.6000	-0.655188	383.315
330.5000	-0.684064	383.054
330.4000	-0.644381	382.776
330.3000	-0.692739	382.532
330.2000	-0.717329	382.173
330.1000	-0.817959	381.876
330.0000	-0.984748	381.609
329.9000	-0.948481	381.33
329.8000	-0.880419	381.083
329.7000	-0.764968	380.752
329.6000	-0.749997	380.488
329.5000	-0.57784	380.26
329.4000	-0.467331	379.986
329.3000	-0.36199	379.743
329.2000	-0.288256	379.398
329.1000	-0.161274	379.127
329.0000	-0.126625	378.891
328.9000	-0.168621	378.625
328.8000	-0.241894	378.38
328.7000	-0.340174	378.042
328.6000	-0.364126	377.796
328.5000	-0.330557	377.594
328.4000	-0.238384	377.352
328.3000	-0.301425	377.135
328.2000	-0.277954	376.844
328.1000	-0.196865	376.616
328.0000	-0.094786	376.419
327.9000	-0.0889836	376.173
327.8000	-0.131727	375.95
327.7000	-0.287057	375.691
327.6000	-0.403585	375.518
327.5000	-0.446739	375.384
327.4000	-0.521522	375.122
327.3000	-0.571031	374.878
327.2000	-0.612386	374.586
327.1000	-0.706843	374.369
327.0000	-0.766721	374.189
326.9000	-0.637373	373.921
326.8000	-0.563339	373.647
326.7000	-0.591933	373.324
326.6000	-0.567238	373.133
326.5000	-0.573089	373.007
326.4000	-0.498172	372.768
326.3000	-0.407473	372.535
326.2000	-0.200742	372.285
326.1000	-0.163485	372.112
326.0000	-0.156252	371.822
325.9000	-0.0807459	371.562
325.8000	-0.0823043	371.308
325.7000	-0.0407617	371.058
325.6000	-0.177832	370.906
325.5000	-0.331903	370.611
325.4000	-0.375551	370.33
325.3000	-0.432357	370.05
325.2000	-0.502041	369.879
325.1000	-0.585596	369.765
325.0000	-0.646736	369.501
324.9000	-0.753045	369.229
324.8000	-0.748929	368.942
324.7000	-0.705771	368.801
324.6000	-0.718664	368.727
324.5000	-0.857144	368.47
324.4000	-0.95652	368.209
324.3000	-0.942623	367.964
324.2000	-0.874836	367.827
324.1000	-0.766208	367.567
324.0000	-0.749946	367.307
323.9000	-0.843541	367.036
323.8000	-0.986257	366.789
323.7000	-1.02261	366.665
323.6000	-0.997392	366.41
323.5000	-0.919109	366.138
323.4000	-0.860282	365.873
323.3000	-0.928718	365.733
323.2000	-0.908996	365.653
323.1000	-0.848054	365.408
323.0000	-0.732845	365.144
322.9000	-0.676289	364.867
322.8000	-0.629278	364.724
322.7000	-0.602476	364.479
322.6000	-0.677147	364.203
322.5000	-0.646933	363.929
322.4000	-0.735011	363.648
322.3000	-0.871514	363.478
322.2000	-0.857891	363.192
322.1000	-0.79111	362.893
322.0000	-0.659412	362.611
321.9000	-0.696509	362.448
321.8000	-0.746948	362.18
321.7000	-0.815441	361.901
321.6000	-0.768063	361.616
321.5000	-0.699992	361.352
321.4000	-0.743513	361.217
321.3000	-0.820452	361.019
321.2000	-1.00434	360.81
321.1000	-1.02836	360.599
321.0000	-1.05441	360.521
320.9000	-1.0359	360.374
320.8000	-1.05323	360.228
320.7000	-1.07577	360.09
320.6000	-1.07802	359.953
320.5000	-1.01631	359.914
320.4000	-0.978117	359.762
320.3000	-0.941187	359.602
320.2000	-0.947277	359.449
320.1000	-0.89581	359.394
320.0000	-0.987757	359.24
319.9000	-1.05383	359.068
319.8000	-0.983782	358.882
319.7000	-0.965313	358.685
319.6000	-0.873639	358.478
319.5000	-0.876271	358.318
319.4000	-0.794223	358.147
319.3000	-0.739198	357.943
319.2000	-0.649602	357.838
319.1000	-0.628058	357.643
319.0000	-0.602458	357.445
318.9000	-0.59455	357.245
318.8000	-0.642192	357.13
318.7000	-0.626971	356.918
318.6000	-0.679725	356.695
318.5000	-0.745391	356.497
318.4000	-0.819236	356.303
318.3000	-0.811013	356.096
318.2000	-0.843161	355.936
318.1000	-0.815357	355.78
318.0000	-0.769825	355.605
317.9000	-0.750632	355.531
317.8000	-0.765561	355.409
317.7000	-0.786693	355.274
317.6000	-0.793202	355.102
317.5000	-0.77185	355.009
317.4000	-0.765946	354.861
317.3000	-0.749536	354.704
317.2000	-0.749741	354.528
317.1000	-0.79922	354.347
317.0000	-0.841242	354.114
316.9000	-0.840739	353.915
316.8000	-0.851348	353.734
316.7000	-0.82088	353.557
316.6000	-0.789049	353.368
316.5000	-0.779474	353.211
316.4000	-0.850965	353.04
316.3000	-0.880552	352.872
316.2000	-0.867447	352.716
316.1000	-0.826082	352.603
316.0000	-0.727951	352.498
315.9000	-0.674239	352.346
315.8000	-0.604297	352.25
315.7000	-0.557985	352.094
315.6000	-0.513865	351.958
315.5000	-0.471345	351.794
315.4000	-0.462052	351.684
315.3000	-0.494235	351.488
315.2000	-0.530746	351.284
315.1000	-0.593754	351.097
315.0000	-0.642588	350.922
314.9000	-0.648989	350.745
314.8000	-0.675727	350.596
314.7000	-0.752843	350.441
314.6000	-0.820427	350.289
314.5000	-0.826126	350.152
314.4000	-0.825597	350.054
314.3000	-0.751358	349.933
314.2000	-0.69798	349.811
314.1000	-0.714867	349.639
314.0000	-0.728402	349.487
313.9000	-0.734596	349.338
313.8000	-0.721703	349.196
313.7000	-0.695782	348.992
313.6000	-0.712161	348.803
313.5000	-0.813319	348.623
313.4000	-0.858975	348.455
313.3000	-0.877353	348.293
313.2000	-0.930399	348.159
313.1000	-0.96628	348.013
313.0000	-0.936929	347.87
312.9000	-1.0196	347.737
312.8000	-1.06563	347.643
312.7000	-1.03339	347.52
312.6000	-1.03714	347.398
312.5000	-1.11115	347.241
312.4000	-1.15792	347.095
312.3000	-1.10351	346.929
312.2000	-1.04689	346.77
312.1000	-1.00546	346.559
312.0000	-0.95505	346.366
311.9000	-0.979283	346.179
311.8000	-0.992395	345.957
311.7000	-1.04942	345.782
311.6000	-1.03591	345.602
311.5000	-1.00023	345.461
311.4000	-1.05874	345.277
311.3000	-1.04949	345.163
311.2000	-1.07029	345.044
311.1000	-1.09918	344.949
311.0000	-1.11574	344.843
310.9000	-1.06284	344.754
310.8000	-0.968114	344.656
310.7000	-0.891124	344.569
310.6000	-0.853002	344.45
310.5000	-0.837264	344.352
310.4000	-0.80889	344.257
310.3000	-0.791004	344.175
310.2000	-0.750886	344.095
310.1000	-0.740721	344.03
310.0000	-0.689826	343.96
309.9000	-0.704087	343.898
309.8000	-0.757352	343.839
309.7000	-0.770347	343.756
309.6000	-0.830019	343.685
309.5000	-0.833258	343.575
309.4000	-0.826013	343.488
309.3000	-0.866843	343.358
309.2000	-0.91466	343.256
309.1000	-0.994309	343.095
309.0000	-1.04835	342.96
308.9000	-1.06707	342.843
308.8000	-0.99224	342.745
308.7000	-0.912708	342.655
308.6000	-0.872732	342.574
308.5000	-0.840575	342.479
308.4000	-0.760439	342.373
308.3000	-0.729173	342.308
308.2000	-0.709728	342.21
308.1000	-0.656427	342.134
308.0000	-0.637729	342.032
307.9000	-0.706487	341.945
307.8000	-0.723407	341.809
307.7000	-0.747403	341.707
307.6000	-0.775765	341.592
307.5000	-0.783814	341.435
307.4000	-0.76545	341.319
307.3000	-0.719108	341.203
307.2000	-0.696597	341.11
307.1000	-0.662379	340.977
307.0000	-0.629961	340.886
306.9000	-0.65129	340.793
306.8000	-0.677295	340.733
306.7000	-0.672889	340.667
306.6000	-0.649692	340.582
306.5000	-0.701503	340.507
306.4000	-0.727385	340.386
306.3000	-0.717977	340.301
306.2000	-0.74145	340.19
306.1000	-0.688201	340.096
306.0000	-0.661018	339.959
305.9000	-0.680532	339.862
305.8000	-0.737899	339.786
305.7000	-0.768019	339.671
305.6000	-0.772545	339.594
305.5000	-0.855141	339.515
305.4000	-0.762589	339.472
305.3000	-0.782013	339.378
305.2000	-0.844477	339.311
305.1000	-0.913247	339.232
305.0000	-0.934602	339.116
304.9000	-0.946362	339.042
304.8000	-0.976771	338.951
304.7000	-0.935395	338.871
304.6000	-0.956831	338.75
304.5000	-0.958761	338.652
304.4000	-0.899457	338.575
304.3000	-0.861221	338.469
304.2000	-0.824794	338.408
304.1000	-0.842044	338.35
304.0000	-0.870623	338.316
303.9000	-0.860084	338.235
303.8000	-0.91381	338.164
303.7000	-0.927958	338.118
303.6000	-0.957669	338.021
303.5000	-0.92784	337.961
303.4000	-0.857823	337.886
303.3000	-0.803606	337.783
303.2000	-0.712406	337.681
303.1000	-0.704368	337.601
303.0000	-0.740356	337.553
302.9000	-0.790742	337.462
302.8000	-0.79858	337.393
302.7000	-0.807482	337.344
302.6000	-0.829002	337.264
302.5000	-0.850252	337.22
302.4000	-0.887995	337.169
302.3000	-0.901846	337.086
302.2000	-0.885703	337.004
302.1000	-0.830565	336.926
302.0000	-0.863672	336.871
301.9000	-0.908461	336.789
301.8000	-0.984022	336.715
301.7000	-1.01025	336.661
301.6000	-0.955421	336.58
301.5000	-0.925269	336.535
301.4000	-0.901569	336.491
301.3000	-0.868691	336.421
301.2000	-0.849808	336.364
301.1000	-0.815781	336.314
301.0000	-0.771424	336.292
300.9000	-0.750982	336.225
300.8000	-0.781915	336.155
300.7000	-0.816358	336.096
300.6000	-0.759306	336.022
300.5000	-0.732277	335.961
300.4000	-0.732093	335.918
300.3000	-0.732133	335.847
300.2000	-0.671582	335.78
300.1000	-0.631222	335.729
300.0000	-0.685799	335.671
299.9000	-0.744736	335.623
299.8000	-0.882948	335.572
299.7000	-0.978782	335.509
299.6000	-1.00545	335.451
299.5000	-1.00394	335.392
299.4000	-1.02515	335.346
299.3000	-1.08845	335.28
299.2000	-1.0405	335.232
299.1000	-0.944711	335.2
299.0000	-0.857869	335.142
298.9000	-0.88023	335.098
298.8000	-0.810653	335.07
298.7000	-0.811442	335.021
298.6000	-0.831857	334.978
298.5000	-0.818398	334.934
298.4000	-0.873288	334.876
298.3000	-0.943764	334.823
298.2000	-1.04586	334.765
298.1000	-1.03596	334.709
298.0000	-1.09898	334.657
297.9000	-1.1557	334.61
297.8000	-1.19204	334.547
297.7000	-1.20252	334.499
297.6000	-1.21489	334.465
297.5000	-1.234	334.408
297.4000	-1.18054	334.371
297.3000	-1.14441	334.342
297.2000	-1.05275	334.287
297.1000	-1.01793	334.246
297.0000	-0.962141	334.205
296.9000	-0.911798	334.145
296.8000	-0.812068	334.1
296.7000	-0.704999	334.068
296.6000	-0.604199	334.046
296.5000	-0.587773	334.003
296.4000	-0.634911	333.972
296.3000	-0.662674	333.952
296.2000	-0.679152	333.916
296.1000	-0.735645	333.89
296.0000	-0.727367	333.873
295.9000	-0.801938	333.834
295.8000	-0.861889	333.773
295.7000	-0.84979	333.737
295.6000	-0.846542	333.699
295.5000	-0.840949	333.641
295.4000	-0.843062	333.577
295.3000	-0.831599	333.539
295.2000	-0.801375	333.489
295.1000	-0.784572	333.429
295.0000	-0.85853	333.397
294.9000	-0.926591	333.352
294.8000	-0.952235	333.298
294.7000	-0.950604	333.27
294.6000	-0.958715	333.245
294.5000	-1.0028	333.204
294.4000	-1.04937	333.173
294.3000	-1.1162	333.146
294.2000	-1.12664	333.105
294.1000	-1.11014	333.078
294.0000	-1.07209	333.058
293.9000	-1.08642	333.017
293.8000	-1.12432	332.992
293.7000	-1.13328	332.97
293.6000	-1.14814	332.926
293.5000	-1.17989	332.874
293.4000	-1.19043	332.852
293.3000	-1.18414	332.813
293.2000	-1.23135	332.759
293.1000	-1.20711	332.733
293.0000	-1.1666	332.692
292.9000	-1.11294	332.647
292.8000	-1.05633	332.629
292.7000	-1.01216	332.61
292.6000	-0.983905	332.576
292.5000	-0.93437	332.53
292.4000	-0.855827	332.51
292.3000	-0.87032	332.473
292.2000	-0.927933	332.43
292.1000	-0.916819	332.412
292.0000	-0.944132	332.373
291.9000	-0.92754	332.325
291.8000	-0.886483	332.281
291.7000	-0.893678	332.261
291.6000	-0.936039	332.221
291.5000	-0.922313	332.177
291.4000	-0.848285	332.155
291.3000	-0.87197	332.106
291.2000	-0.877733	332.045
291.1000	-0.876238	331.983
291.0000	-0.901129	331.94
290.9000	-0.91952	331.874
290.8000	-0.915492	331.792
290.7000	-0.935779	331.704
290.6000	-0.969877	331.608
290.5000	-1.02125	331.49
290.4000	-1.0087	331.37
290.3000	-0.964022	331.267
290.2000	-0.982336	331.137
290.1000	-1.01075	330.994
290.0000	-1.07583	330.86
289.9000	-1.13326	330.763
289.8000	-1.156	330.672
289.7000	-1.15108	330.606
289.6000	-1.12901	330.577
289.5000	-1.20673	330.581
289.4000	-1.27508	330.61
289.3000	-1.29468	330.673
289.2000	-1.3489	330.759
289.1000	-1.34086	330.871
289.0000	-1.31982	330.979
288.9000	-1.29096	331.089
288.8000	-1.34833	331.187
288.7000	-1.39238	331.276
288.6000	-1.35394	331.347
288.5000	-1.27244	331.402
288.4000	-1.16504	331.445
288.3000	-1.09688	331.472
288.2000	-1.15561	331.476
288.1000	-1.15279	331.469
288.0000	-1.1224	331.453
287.9000	-1.09908	331.424
287.8000	-1.06735	331.407
287.7000	-1.08493	331.388
287.6000	-1.1259	331.371
287.5000	-1.15476	331.342
287.4000	-1.11157	331.332
287.3000	-1.0562	331.325
287.2000	-1.04073	331.317
287.1000	-1.02906	331.308
287.0000	-1.04847	331.276
286.9000	-1.09969	331.256
286.8000	-1.05635	331.246
286.7000	-1.01945	331.235
286.6000	-1.0318	331.207
286.5000	-1.03461	331.199
286.4000	-1.06623	331.196
286.3000	-1.02348	331.198
286.2000	-1.06218	331.199
286.1000	-1.03885	331.194
286.0000	-1.03686	331.199
285.9000	-1.10252	331.195
285.8000	-1.13521	331.196
285.7000	-1.15096	331.177
285.6000	-1.18794	331.157
285.5000	-1.15051	331.161
285.4000	-1.12518	331.168
285.3000	-1.12779	331.179
285.2000	-1.17536	331.159
285.1000	-1.17744	331.15
285.0000	-1.14115	331.166
284.9000	-1.1584	331.17
284.8000	-1.12361	331.182
284.7000	-1.19098	331.163
284.6000	-1.29863	331.147
284.5000	-1.28357	331.156
284.4000	-1.25648	331.167
284.3000	-1.26987	331.185
284.2000	-1.27164	331.173
284.1000	-1.30851	331.172
284.0000	-1.29838	331.16
283.9000	-1.23522	331.174
283.8000	-1.09246	331.197
283.7000	-1.02961	331.196
283.6000	-1.01815	331.196
283.5000	-0.967268	331.196
283.4000	-0.930275	331.202
283.3000	-0.841999	331.225
283.2000	-0.803433	331.248
283.1000	-0.811803	331.26
283.0000	-0.826383	331.255
282.9000	-0.805177	331.253
282.8000	-0.728319	331.252
282.7000	-0.677788	331.268
282.6000	-0.634937	331.288
282.5000	-0.588766	331.293
282.4000	-0.525956	331.292
282.3000	-0.520891	331.289
282.2000	-0.513592	331.291
282.1000	-0.553941	331.315
282.0000	-0.542269	331.34
281.9000	-0.580326	331.35
281.8000	-0.610446	331.353
281.7000	-0.720621	331.352
281.6000	-0.820852	331.356
281.5000	-0.912579	331.36
281.4000	-0.997049	331.38
281.3000	-1.03905	331.387
281.2000	-1.09586	331.387
281.1000	-1.09697	331.388
281.0000	-1.10373	331.388
280.9000	-1.07992	331.389
280.8000	-1.05298	331.392
280.7000	-1.06444	331.394
280.6000	-1.01787	331.407
280.5000	-0.993913	331.412
280.4000	-1.05036	331.411
280.3000	-1.11104	331.408
280.2000	-1.11649	331.405
280.1000	-1.08216	331.403
280.0000	-1.10419	331.399
279.9000	-1.09628	331.398
279.8000	-1.07252	331.383
279.7000	-1.05234	331.38
279.6000	-0.95753	331.38
279.5000	-0.923548	331.382
279.4000	-0.923764	331.384
279.3000	-0.94228	331.385
279.2000	-0.939974	331.39
279.1000	-0.898697	331.396
279.0000	-0.903915	331.402
278.9000	-0.880752	331.399
278.8000	-0.957327	331.407
278.7000	-0.989877	331.421
278.6000	-1.00686	331.435
278.5000	-1.08081	331.45
278.4000	-1.09078	331.466
278.3000	-1.13267	331.48
278.2000	-1.15581	331.493
278.1000	-1.17047	331.51
278.0000	-1.12929	331.515
277.9000	-1.09151	331.511
277.8000	-1.11345	331.509
277.7000	-1.088	331.507
277.6000	-1.10971	331.521
277.5000	-1.10197	331.534
277.4000	-1.06512	331.55
277.3000	-0.996949	331.569
277.2000	-1.00685	331.585
277.1000	-1.01933	331.6
277.0000	-0.999002	331.619
276.9000	-1.00748	331.639
276.8000	-1.01019	331.644
276.7000	-0.97238	331.646
276.6000	-0.945545	331.651
276.5000	-1.02733	331.653
276.4000	-1.00713	331.66
276.3000	-0.970641	331.67
276.2000	-1.00382	331.676
276.1000	-0.926399	331.686
276.0000	-0.911332	331.715
275.9000	-0.902536	331.75
275.8000	-0.866341	331.783
275.7000	-0.824907	331.815
275.6000	-0.80902	331.848
275.5000	-0.846147	331.876
275.4000	-0.844615	331.904
275.3000	-0.890841	331.93
275.2000	-0.958604	331.942
275.1000	-0.960382	331.949
275.0000	-0.986692	331.957
274.9000	-1.0476	331.964
274.8000	-1.09806	331.971
274.7000	-1.11481	331.979
274.6000	-1.11714	331.991
274.5000	-1.08751	332.011
274.4000	-1.08578	332.034
274.3000	-1.03403	332.06
274.2000	-1.02775	332.081
274.1000	-1.00615	332.106
274.0000	-0.954388	332.13
273.9000	-0.893809	332.153
273.8000	-0.854483	332.176
273.7000	-0.880652	332.195
273.6000	-0.815831	332.211
273.5000	-0.790609	332.226
273.4000	-0.834089	332.242
273.3000	-0.855193	332.264
273.2000	-0.851284	332.282
273.1000	-0.90706	332.298
273.0000	-0.9887	332.311
272.9000	-1.01863	332.328
272.8000	-1.08895	332.348
272.7000	-1.14579	332.375
272.6000	-1.14178	332.403
272.5000	-1.14725	332.429
272.4000	-1.22045	332.457
272.3000	-1.22034	332.493
272.2000	-1.18021	332.534
272.1000	-1.12674	332.568
272.0000	-1.05375	332.601
271.9000	-1.05485	332.627
271.8000	-1.0112	332.648
271.7000	-0.997473	332.667
271.6000	-0.936238	332.683
271.5000	-0.917786	332.692
271.4000	-0.922087	332.7
271.3000	-0.908168	332.711
271.2000	-0.918726	332.718
271.1000	-0.865467	332.724
271.0000	-0.811231	332.733
270.9000	-0.758255	332.726
270.8000	-0.663323	332.719
270.7000	-0.593668	332.716
270.6000	-0.555742	332.71
270.5000	-0.575405	332.695
270.4000	-0.599933	332.684
270.3000	-0.618369	332.676
270.2000	-0.65911	332.665
270.1000	-0.679508	332.665
270.0000	-0.812278	332.671
269.9000	-0.932063	332.675
269.8000	-1.01192	332.68
269.7000	-1.04708	332.69
269.6000	-0.979584	332.71
269.5000	-0.967456	332.724
269.4000	-1.00615	332.728
269.3000	-1.09404	332.74
269.2000	-1.07693	332.756
269.1000	-1.01891	332.774
269.0000	-0.960759	332.792
268.9000	-0.907956	332.823
268.8000	-0.891521	332.847
268.7000	-0.93144	332.877
268.6000	-0.940563	332.921
268.5000	-0.848195	332.981
268.4000	-0.827293	333.035
268.3000	-0.830745	333.075
268.2000	-0.776953	333.122
268.1000	-0.776205	333.156
268.0000	-0.800475	333.204
267.9000	-0.790589	333.255
267.8000	-0.81762	333.312
267.7000	-0.860384	333.361
267.6000	-0.883945	333.41
267.5000	-0.883666	333.466
267.4000	-0.911553	333.512
267.3000	-0.92571	333.564
267.2000	-0.930438	333.605
267.1000	-0.99014	333.646
267.0000	-0.989399	333.685
266.9000	-0.941586	333.732
266.8000	-0.932704	333.768
266.7000	-0.96035	333.792
266.6000	-1.03983	333.837
266.5000	-1.11573	333.89
266.4000	-1.21946	333.952
266.3000	-1.25552	334.014
266.2000	-1.2384	334.082
266.1000	-1.22347	334.138
266.0000	-1.20853	334.185
265.9000	-1.1764	334.251
265.8000	-1.11584	334.314
265.7000	-1.02684	334.37
265.6000	-0.902463	334.424
265.5000	-0.784039	334.478
265.4000	-0.672501	334.517
265.3000	-0.605269	334.553
265.2000	-0.58013	334.599
265.1000	-0.570457	334.648
265.0000	-0.564003	334.702
264.9000	-0.565712	334.769
264.8000	-0.563272	334.824
264.7000	-0.591106	334.879
264.6000	-0.6361	334.944
264.5000	-0.771514	335.019
264.4000	-0.812615	335.105
264.3000	-0.829427	335.177
264.2000	-0.780137	335.243
264.1000	-0.756907	335.302
264.0000	-0.756388	335.372
263.9000	-0.739954	335.456
263.8000	-0.741746	335.532
263.7000	-0.716187	335.609
263.6000	-0.679435	335.678
263.5000	-0.611843	335.757
263.4000	-0.59387	335.851
263.3000	-0.583767	335.936
263.2000	-0.584819	336.015
263.1000	-0.544937	336.095
263.0000	-0.52704	336.176
262.9000	-0.50801	336.243
262.8000	-0.489607	336.313
262.7000	-0.513021	336.381
262.6000	-0.548113	336.448
262.5000	-0.712459	336.521
262.4000	-0.785726	336.593
262.3000	-0.874853	336.666
262.2000	-0.969823	336.734
262.1000	-0.889934	336.824
262.0000	-0.820945	336.897
261.9000	-0.791481	336.971
261.8000	-0.872651	337.039
261.7000	-0.852507	337.099
261.6000	-0.742971	337.174
261.5000	-0.628276	337.256
261.4000	-0.557592	337.336
261.3000	-0.54506	337.393
261.2000	-0.639348	337.458
261.1000	-0.66534	337.534
261.0000	-0.604676	337.62
260.9000	-0.492914	337.704
260.8000	-0.489431	337.79
260.7000	-0.561742	337.871
260.6000	-0.597572	337.941
260.5000	-0.649491	338.023
260.4000	-0.633065	338.124
260.3000	-0.594008	338.231
260.2000	-0.603858	338.323
260.1000	-0.619527	338.421
260.0000	-0.606849	338.522
259.9000	-0.520734	338.613
259.8000	-0.525027	338.711
259.7000	-0.454193	338.816
259.6000	-0.460151	338.901
259.5000	-0.500577	338.979
259.4000	-0.506877	339.07
259.3000	-0.53869	339.156
259.2000	-0.565835	339.238
259.1000	-0.614467	339.32
259.0000	-0.63834	339.397
258.9000	-0.710412	339.475
258.8000	-0.761234	339.569
258.7000	-0.794943	339.654
258.6000	-0.829696	339.736
258.5000	-0.799123	339.822
258.4000	-0.823785	339.904
258.3000	-0.864921	339.993
258.2000	-0.854231	340.092
258.1000	-0.816292	340.179
258.0000	-0.82177	340.264
257.9000	-0.824565	340.361
257.8000	-0.767209	340.45
257.7000	-0.771706	340.537
257.6000	-0.742209	340.643
257.5000	-0.694747	340.753
257.4000	-0.765541	340.866
257.3000	-0.785259	340.979
257.2000	-0.705878	341.093
257.1000	-0.690795	341.192
257.0000	-0.693241	341.292
256.9000	-0.693716	341.398
256.8000	-0.697923	341.486
256.7000	-0.674038	341.576
256.6000	-0.602905	341.655
256.5000	-0.50781	341.725
256.4000	-0.592797	341.801
256.3000	-0.59501	341.882
256.2000	-0.559025	341.975
256.1000	-0.610317	342.071
256.0000	-0.670956	342.159
255.9000	-0.765977	342.237
255.8000	-0.880373	342.3
255.7000	-0.974459	342.384
255.6000	-0.968595	342.481
255.5000	-0.99563	342.574
255.4000	-1.1063	342.662
255.3000	-1.0869	342.739
255.2000	-1.08118	342.828
255.1000	-1.09783	342.912
255.0000	-1.08181	343.008
254.9000	-1.12188	343.096
254.8000	-1.10325	343.189
254.7000	-1.14028	343.285
254.6000	-1.06465	343.385
254.5000	-1.01363	343.495
254.4000	-0.971778	343.592
254.3000	-0.880106	343.697
254.2000	-0.75603	343.804
254.1000	-0.643375	343.913
254.0000	-0.613462	344.004
253.9000	-0.653555	344.09
253.8000	-0.635156	344.171
253.7000	-0.67479	344.252
253.6000	-0.790845	344.33
253.5000	-0.874778	344.415
253.4000	-0.991161	344.494
253.3000	-1.07223	344.576
253.2000	-1.09821	344.663
253.1000	-1.0671	344.752
253.0000	-0.994545	344.841
252.9000	-0.978036	344.939
252.8000	-0.917156	345.041
252.7000	-0.917069	345.139
252.6000	-0.92237	345.228
252.5000	-0.921061	345.328
252.4000	-0.962134	345.425
252.3000	-1.01101	345.518
252.2000	-1.06873	345.602
252.1000	-1.02756	345.687
252.0000	-0.968668	345.764
251.9000	-0.931234	345.834
251.8000	-0.883009	345.921
251.7000	-0.85107	345.998
251.6000	-0.800506	346.081
251.5000	-0.770413	346.16
251.4000	-0.754889	346.257
251.3000	-0.840384	346.345
251.2000	-0.924411	346.424
251.1000	-0.993789	346.512
251.0000	-0.963691	346.602
250.9000	-0.925709	346.712
250.8000	-0.859985	346.82
250.7000	-0.79881	346.932
250.6000	-0.729184	347.036
250.5000	-0.713189	347.136
250.4000	-0.690402	347.251
250.3000	-0.684972	347.358
250.2000	-0.70481	347.473
250.1000	-0.695267	347.574
250.0000	-0.741496	347.663
249.9000	-0.73966	347.757
249.8000	-0.679446	347.852
249.7000	-0.64513	347.961
249.6000	-0.596271	348.06
249.5000	-0.611655	348.155
249.4000	-0.652683	348.254
249.3000	-0.634189	348.353
249.2000	-0.626409	348.452
249.1000	-0.639601	348.556
249.0000	-0.645426	348.658
248.9000	-0.712524	348.75
248.8000	-0.803787	348.843
248.7000	-0.767596	348.941
248.6000	-0.710671	349.034
248.5000	-0.706038	349.131
248.4000	-0.696423	349.226
248.3000	-0.726486	349.305
248.2000	-0.776581	349.39
248.1000	-0.862984	349.47
248.0000	-0.849146	349.551
247.9000	-0.825768	349.642
247.8000	-0.754403	349.727
247.7000	-0.744958	349.803
247.6000	-0.809083	349.887
247.5000	-0.863662	349.983
247.4000	-0.890273	350.075
247.3000	-0.83678	350.162
247.2000	-0.730183	350.261
247.1000	-0.709506	350.352
247.0000	-0.732188	350.439
246.9000	-0.769801	350.534
246.8000	-0.827459	350.61
246.7000	-0.835782	350.679
246.6000	-0.787337	350.751
246.5000	-0.829484	350.836
246.4000	-0.92791	350.922
246.3000	-0.899806	351.013
246.2000	-0.910704	351.109
246.1000	-0.993002	351.217
246.0000	-0.982152	351.334
245.9000	-0.955349	351.457
245.8000	-1.00153	351.576
245.7000	-1.05911	351.704
245.6000	-1.07175	351.83
245.5000	-1.16103	351.945
245.4000	-1.23811	352.053
245.3000	-1.11416	352.163
245.2000	-0.976229	352.285
245.1000	-0.922968	352.401
245.0000	-0.849689	352.515
244.9000	-0.785407	352.622
244.8000	-0.690839	352.725
244.7000	-0.649292	352.834
244.6000	-0.627479	352.947
244.5000	-0.680708	353.059
244.4000	-0.781384	353.152
244.3000	-0.782061	353.241
244.2000	-0.801415	353.332
244.1000	-0.782369	353.435
244.0000	-0.810583	353.539
243.9000	-0.797126	353.642
243.8000	-0.733447	353.749
243.7000	-0.689038	353.857
243.6000	-0.692397	353.96
243.5000	-0.733929	354.069
243.4000	-0.736146	354.193
243.3000	-0.817854	354.313
243.2000	-0.812062	354.432
243.1000	-0.777862	354.552
243.0000	-0.755599	354.672
242.9000	-0.811287	354.79
242.8000	-0.833591	354.911
242.7000	-0.868595	355.037
242.6000	-0.917034	355.162
242.5000	-0.818074	355.289
242.4000	-0.724879	355.416
242.3000	-0.714164	355.536
242.2000	-0.729918	355.654
242.1000	-0.675564	355.771
242.0000	-0.717443	355.887
241.9000	-0.730035	356.01
241.8000	-0.650155	356.133
241.7000	-0.705545	356.251
241.6000	-0.829379	356.36
241.5000	-0.899527	356.473
241.4000	-0.877356	356.595
241.3000	-0.953963	356.718
241.2000	-0.948252	356.846
241.1000	-0.879644	356.972
241.0000	-0.856555	357.101
240.9000	-0.864663	357.233
240.8000	-0.812613	357.371
240.7000	-0.797023	357.513
240.6000	-0.8052	357.651
240.5000	-0.852313	357.787
240.4000	-0.799686	357.93
240.3000	-0.776195	358.076
240.2000	-0.770827	358.22
240.1000	-0.721737	358.368
240.0000	-0.725236	358.517
239.9000	-0.815449	358.669
239.8000	-0.785531	358.832
239.7000	-0.717988	358.995
239.6000	-0.776188	359.157
239.5000	-0.861518	359.322
239.4000	-0.9902	359.488
239.3000	-1.11603	359.649
239.2000	-1.14404	359.806
239.1000	-1.1046	359.961
239.0000	-1.12473	360.112
238.9000	-1.18356	360.264
238.8000	-1.12261	360.421
238.7000	-1.05508	360.582
238.6000	-0.969201	360.736
238.5000	-0.870228	360.894
238.4000	-0.87381	361.057
238.3000	-0.927778	361.221
238.2000	-0.90477	361.395
238.1000	-0.896561	361.573
238.0000	-0.892705	361.749
237.9000	-0.93091	361.922
237.8000	-0.895126	362.096
237.7000	-0.849672	362.274
237.6000	-0.83629	362.452
237.5000	-0.798115	362.63
237.4000	-0.886584	362.8
237.3000	-0.940509	362.971
237.2000	-0.978611	363.144
237.1000	-0.953596	363.315
237.0000	-0.964728	363.488
236.9000	-1.00224	363.667
236.8000	-0.974493	363.85
236.7000	-0.930394	364.038
236.6000	-0.873251	364.224
236.5000	-0.827778	364.413
236.4000	-0.848054	364.6
236.3000	-0.904044	364.789
236.2000	-0.961707	364.975
236.1000	-0.963234	365.155
236.0000	-1.02319	365.334
235.9000	-1.06563	365.524
235.8000	-1.05488	365.727
235.7000	-1.10824	365.918
235.6000	-1.12565	366.105
235.5000	-1.16775	366.292
235.4000	-1.20477	366.489
235.3000	-1.1869	366.693
235.2000	-1.25142	366.893
235.1000	-1.27452	367.085
235.0000	-1.28118	367.267
234.9000	-1.3233	367.453
234.8000	-1.26422	367.658
234.7000	-1.16943	367.869
234.6000	-1.08509	368.07
234.5000	-1.13608	368.269
234.4000	-1.14461	368.476
234.3000	-1.16992	368.681
234.2000	-1.24875	368.889
234.1000	-1.24472	369.107
234.0000	-1.2017	369.315
233.9000	-1.21523	369.517
233.8000	-1.22754	369.725
233.7000	-1.14143	369.939
233.6000	-1.11566	370.154
233.5000	-1.05741	370.375
233.4000	-0.969053	370.588
233.3000	-0.929263	370.802
233.2000	-0.91464	371.024
233.1000	-0.892418	371.245
233.0000	-0.873257	371.474
232.9000	-0.956752	371.694
232.8000	-0.958553	371.917
232.7000	-0.977704	372.143
232.6000	-1.03787	372.371
232.5000	-1.04395	372.605
232.4000	-1.13364	372.826
232.3000	-1.28034	373.049
232.2000	-1.38378	373.264
232.1000	-1.39386	373.488
232.0000	-1.40841	373.709
231.9000	-1.5153	373.923
231.8000	-1.46568	374.137
231.7000	-1.39542	374.352
231.6000	-1.36039	374.57
231.5000	-1.18237	374.788
231.4000	-1.11934	375.009
231.3000	-1.11822	375.223
231.2000	-1.20049	375.437
231.1000	-1.14285	375.655
231.0000	-1.00704	375.878
230.9000	-0.992108	376.106
230.8000	-0.904804	376.331
230.7000	-0.952584	376.561
230.6000	-0.983718	376.791
230.5000	-0.946097	377.032
230.4000	-0.902642	377.273
230.3000	-0.822494	377.522
230.2000	-0.936966	377.764
230.1000	-1.10524	378.008
230.0000	-1.24061	378.251
229.9000	-1.3309	378.488
229.8000	-1.32528	378.731
229.7000	-1.42266	378.96
229.6000	-1.43888	379.185
229.5000	-1.49331	379.402
229.4000	-1.47017	379.613
229.3000	-1.37423	379.822
229.2000	-1.49508	380.02
229.1000	-1.5275	380.222
229.0000	-1.50072	380.43
228.9000	-1.38403	380.647
228.8000	-1.38383	380.863
228.7000	-1.45432	381.093
228.6000	-1.48013	381.334
228.5000	-1.54007	381.582
228.4000	-1.47751	381.85
228.3000	-1.45672	382.125
228.2000	-1.49453	382.398
228.1000	-1.62903	382.678
228.0000	-1.65327	382.963
227.9000	-1.62489	383.243
227.8000	-1.61848	383.517
227.7000	-1.58583	383.797
227.6000	-1.58175	384.067
227.5000	-1.44403	384.334
227.4000	-1.48912	384.593
227.3000	-1.48523	384.853
227.2000	-1.55588	385.107
227.1000	-1.67786	385.364
227.0000	-1.77559	385.618
226.9000	-1.81645	385.87
226.8000	-1.98172	386.12
226.7000	-2.00406	386.376
226.6000	-1.94507	386.634
226.5000	-1.81365	386.888
226.4000	-1.81049	387.134
226.3000	-1.83444	387.378
226.2000	-1.79157	387.631
226.1000	-1.77087	387.881
226.0000	-1.65702	388.128
225.9000	-1.63809	388.374
225.8000	-1.64135	388.622
225.7000	-1.70113	388.875
225.6000	-1.64839	389.135
225.5000	-1.46632	389.402
225.4000	-1.38308	389.664
225.3000	-1.35996	389.932
225.2000	-1.32563	390.207
225.1000	-1.39892	390.475
225.0000	-1.55113	390.738
224.9000	-1.70613	390.996
224.8000	-1.75787	391.253
224.7000	-1.78887	391.512
224.6000	-1.90218	391.769
224.5000	-1.9554	392.023
224.4000	-2.05549	392.269
224.3000	-1.98213	392.523
224.2000	-1.96833	392.777
224.1000	-1.83773	393.039
224.0000	-1.82758	393.299
223.9000	-1.9114	393.556
223.8000	-1.86951	393.815
223.7000	-1.88245	394.072
223.6000	-1.83673	394.333
223.5000	-1.92267	394.589
223.4000	-1.88069	394.849
223.3000	-1.75	395.102
223.2000	-1.66874	395.352
223.1000	-1.54528	395.603
223.0000	-1.48908	395.853
222.9000	-1.33672	396.106
222.8000	-1.20362	396.356
222.7000	-1.04514	396.608
222.6000	-0.984794	396.853
222.5000	-1.0417	397.103
222.4000	-1.16429	397.345
222.3000	-1.20011	397.593
222.2000	-1.23546	397.84
222.1000	-1.31152	398.083
222.0000	-1.30918	398.332
221.9000	-1.2759	398.572
221.8000	-1.29779	398.813
221.7000	-1.45088	399.051
221.6000	-1.44507	399.296
221.5000	-1.39553	399.544
221.4000	-1.44425	399.782
221.3000	-1.47857	400.026
221.2000	-1.49364	400.27
221.1000	-1.51097	400.516
221.0000	-1.44973	400.764
220.9000	-1.34625	401.01
220.8000	-1.29223	401.258
220.7000	-1.41215	401.495
220.6000	-1.4506	401.737
220.5000	-1.55696	401.979
220.4000	-1.62213	402.214
220.3000	-1.74678	402.454
220.2000	-1.87937	402.699
220.1000	-1.98388	402.942
220.0000	-1.95507	403.19
219.9000	-1.88699	403.443
219.8000	-1.88234	403.691
219.7000	-1.8303	403.941
219.6000	-1.71207	404.192
219.5000	-1.67618	404.443
219.4000	-1.65831	404.695
219.3000	-1.62255	404.946
219.2000	-1.56103	405.2
219.1000	-1.61676	405.445
219.0000	-1.65597	405.694
218.9000	-1.58556	405.944
218.8000	-1.49005	406.197
218.7000	-1.49376	406.443
218.6000	-1.47611	406.685
218.5000	-1.53773	406.921
218.4000	-1.65962	407.161
218.3000	-1.80159	407.397
218.2000	-1.75435	407.645
218.1000	-1.8	407.889
218.0000	-1.97158	408.134
217.9000	-2.10749	408.38
217.8000	-2.18054	408.621
217.7000	-2.28397	408.869
217.6000	-2.38093	409.114
217.5000	-2.40204	409.37
217.4000	-2.55635	409.614
217.3000	-2.61406	409.86
217.2000	-2.62712	410.111
217.1000	-2.47771	410.366
217.0000	-2.4058	410.622
216.9000	-2.35077	410.878
216.8000	-2.35795	411.132
216.7000	-2.30322	411.381
216.6000	-2.15341	411.635
216.5000	-2.14967	411.888
216.4000	-2.24465	412.134
216.3000	-2.36737	412.375
216.2000	-2.36532	412.627
216.1000	-2.36358	412.878
216.0000	-2.27263	413.133
215.9000	-2.26162	413.387
215.8000	-2.24664	413.643
215.7000	-2.18035	413.905
215.6000	-2.19037	414.167
215.5000	-2.032	414.438
215.4000	-2.02884	414.701
215.3000	-1.94085	414.968
215.2000	-1.83281	415.233
215.1000	-1.64406	415.51
215.0000	-1.68131	415.779
214.9000	-1.8041	416.047
214.8000	-1.7539	416.317
214.7000	-1.77219	416.585
214.6000	-1.85677	416.853
214.5000	-1.94236	417.122
214.4000	-1.8529	417.402
214.3000	-1.92182	417.676
214.2000	-1.86717	417.952
214.1000	-1.84239	418.227
214.0000	-1.70266	418.506
213.9000	-1.59086	418.788
213.8000	-1.56025	419.068
213.7000	-1.47364	419.353
213.6000	-1.59364	419.63
213.5000	-1.66468	419.911
213.4000	-1.60449	420.199
213.3000	-1.38191	420.496
213.2000	-1.38233	420.788
213.1000	-1.30114	421.086
213.0000	-1.30959	421.383
212.9000	-1.34201	421.682
212.8000	-1.32645	421.977
212.7000	-1.51258	422.268
212.6000	-1.61534	422.562
212.5000	-1.7122	422.859
212.4000	-1.71245	423.162
212.3000	-1.58478	423.464
212.2000	-1.49823	423.767
212.1000	-1.3473	424.076
212.0000	-1.35379	424.391
211.9000	-1.15491	424.717
211.8000	-1.17667	425.032
211.7000	-1.19881	425.347
211.6000	-1.37787	425.661
211.5000	-1.55728	425.976
211.4000	-1.79478	426.293
211.3000	-1.96119	426.614
211.2000	-1.86355	426.939
211.1000	-1.87832	427.261
211.0000	-1.77802	427.596
210.9000	-1.74035	427.931
210.8000	-1.70549	428.267
210.7000	-1.65871	428.613
210.6000	-1.44997	428.963
210.5000	-1.16696	429.321
210.4000	-1.11303	429.674
210.3000	-1.02753	430.033
210.2000	-0.830919	430.392
210.1000	-0.676518	430.754
210.0000	-0.650659	431.112
209.9000	-0.613705	431.47
209.8000	-0.667408	431.824
209.7000	-0.853603	432.177
209.6000	-1.09575	432.528
209.5000	-1.22693	432.889
209.4000	-1.45383	433.248
209.3000	-1.65873	433.608
209.2000	-1.72466	433.978
209.1000	-1.70091	434.352
209.0000	-1.76884	434.723
208.9000	-1.89069	435.097
208.8000	-2.09835	435.467
208.7000	-2.12732	435.843
208.6000	-2.1612	436.228
208.5000	-2.13338	436.617
208.4000	-2.09978	437.003
208.3000	-2.01429	437.397
208.2000	-1.75847	437.799
208.1000	-1.44158	438.205
208.0000	-1.09325	438.612
207.9000	-0.788135	439.02
207.8000	-0.657836	439.425
207.7000	-0.549515	439.824
207.6000	-0.529943	440.227
207.5000	-0.543039	440.623
207.4000	-0.549	441.02
207.3000	-0.809357	441.414
207.2000	-0.949746	441.816
207.1000	-1.11593	442.215
207.0000	-1.406	442.609
206.9000	-1.65754	443.01
206.8000	-1.87061	443.414
206.7000	-1.76601	443.831
206.6000	-1.82096	444.244
206.5000	-1.80253	444.661
206.4000	-1.66669	445.083
206.3000	-1.47979	445.513
206.2000	-1.31086	445.943
206.1000	-1.01848	446.375
206.0000	-0.53603	446.815
205.9000	-0.326929	447.248
205.8000	-0.329096	447.677
205.7000	-0.278226	448.112
205.6000	-0.212772	448.548
205.5000	-0.267688	448.984
205.4000	-0.234563	449.422
205.3000	-0.359832	449.859
205.2000	-0.633363	450.298
205.1000	-0.867789	450.741
205.0000	-1.01431	451.185
204.9000	-0.949672	451.642
204.8000	-0.872632	452.103
204.7000	-0.913207	452.569
204.6000	-0.884676	453.04
204.5000	-0.872092	453.511
204.4000	-0.798459	453.985
204.3000	-0.695359	454.465
204.2000	-0.673416	454.948
204.1000	-0.497944	455.433
204.0000	-0.286725	455.923
203.9000	-0.293913	456.402
203.8000	-0.507544	456.878
203.7000	-0.773059	457.356
203.6000	-1.07663	457.84
203.5000	-1.22656	458.329
203.4000	-1.17956	458.829
203.3000	-1.20921	459.336
203.2000	-1.50935	459.839
203.1000	-1.85138	460.345
203.0000	-1.77114	460.867
202.9000	-1.45756	461.399
202.8000	-1.02047	461.933
202.7000	-1.00929	462.461
202.6000	-0.842592	462.997
202.5000	-0.887753	463.525
202.4000	-0.843457	464.056
202.3000	-0.570752	464.6
202.2000	-0.336886	465.146
202.1000	-0.343955	465.688
202.0000	-0.72965	466.23
201.9000	-0.688264	466.792
201.8000	-0.689568	467.355
201.7000	-0.620369	467.931
201.6000	-0.43779	468.517
201.5000	-0.323983	469.109
201.4000	-0.345678	469.703
201.3000	-0.422676	470.306
201.2000	-0.189872	470.925
201.1000	0.0106329	471.551
201.0000	0.147079	472.182
200.9000	0.221483	472.819
200.8000	0.207738	473.463
200.7000	0.0692053	474.116
200.6000	-0.0242049	474.786
200.5000	0.190378	475.478
200.4000	0.2502	476.184
200.3000	0.380115	476.908
200.2000	0.575468	477.643
200.1000	0.628582	478.382
200.0000	0.646813	479.126
199.9000	0.780321	479.878
199.8000	1.05148	480.636
199.7000	1.30092	481.388
199.6000	1.39099	482.135
199.5000	1.47398	482.882
199.4000	1.69476	483.635
199.3000	1.90505	484.39
199.2000	2.33599	485.159
199.1000	2.286	485.926
199.0000	2.254	486.7
198.9000	2.11481	487.485
198.8000	2.1702	488.29
198.7000	2.12039	489.117
198.6000	1.68205	489.952
198.5000	1.35302	490.813
198.4000	0.900665	491.685
198.3000	0.919872	492.58
198.2000	0.870183	493.496
198.1000	0.824945	494.44
198.0000	0.666626	495.405
197.9000	0.605617	496.382
197.8000	0.852604	497.377
197.7000	0.821822	498.378
197.6000	0.929719	499.398
197.5000	0.926827	500.427
197.4000	1.09639	501.463
197.3000	1.61395	502.499
197.2000	1.75249	503.492
197.1000	2.06288	504.461
197.0000	2.09435	505.405
196.9000	2.0769	506.333
196.8000	1.95387	507.251
196.7000	1.60756	508.158
196.6000	1.33011	509.082
196.5000	0.64597	510.021
196.4000	0.372207	511.027
196.3000	0.127628	512.096
196.2000	-0.0265385	513.232
196.1000	-0.0879276	514.436
196.0000	0.00372681	515.711
195.9000	0.334444	517.079
195.8000	0.884664	518.552
195.7000	1.43995	520.135
195.6000	1.51537	521.812
195.5000	1.79922	523.617
195.4000	2.17067	525.53
195.3000	2.63992	527.534
195.2000	2.90334	529.601
195.1000	3.06818	531.708
195.0000	2.87447	533.772
194.9000	2.27333	535.738
194.8000	2.07603	537.59
194.7000	2.07899	539.3
194.6000	2.00668	540.888
194.5000	1.94619	542.373
194.4000	2.14786	543.797
194.3000	2.46413	545.178
194.2000	2.59359	546.587
194.1000	2.15722	548.085
194.0000	2.02749	549.77
193.9000	1.50476	551.668
193.8000	1.41828	553.818
193.7000	1.44077	556.27
193.6000	1.23854	559.011
193.5000	1.01317	562.097
193.4000	1.10549	565.576
193.3000	1.42913	569.46
193.2000	1.91652	573.728
193.1000	2.42964	578.334
193.0000	2.45449	583.205
192.9000	2.74186	588.266
192.8000	2.78627	593.395
192.7000	3.04442	598.451
192.6000	2.42338	603.173
192.5000	2.75414	607.466
192.4000	3.47332	611.295
192.3000	3.31322	614.648
192.2000	3.93826	617.612
192.1000	4.35913	620.218
192.0000	5.3576	622.619
191.9000	6.17766	624.971
191.8000	6.90814	627.527
191.7000	6.88837	630.53
191.6000	5.99793	634.094
191.5000	5.03164	638.277
191.4000	4.04916	643.092
191.3000	2.77409	648.64
191.2000	0.984634	654.945
191.1000	-1.73533	662.021
191.0000	-3.35166	669.891
190.9000	-3.35981	678.464
190.8000	-1.95436	687.67
190.7000	-1.79074	697.297
190.6000	-0.635005	707.301
190.5000	-0.337741	717.414
190.4000	-0.343499	727.287
190.3000	1.63041	736.726
190.2000	3.88196	745.53
190.1000	2.54816	753.547
190.0000	-1.42833	760.81

##### Extended Information
[Comments]
Sample name	ACE2_Cal_0.6uM
Comment
User
Division
Company	CSIR-IMTECH

[Detailed Information]
Creation date	4/9/2024 4:30 PM

Data array type	Linear data array * 2
Horizontal axis	Wavelength [nm]
Vertical axis(1)	CD [mdeg]
Vertical axis(2)	HT [V]
Start	350 nm
End	190 nm
Data interval	0.1 nm
Data points	1601    

[Measurement Information]
Instrument Name	JASCO CD
Model Name	J-815
Serial No.	B063061168

Accessory	PTC-423S
Accessory S/N	C013945-01
  Temperature	36.78 C
  Control Sonsor	Cell
  Monitor Sensor	Cell
  Start Mode	Start immediately
  Cell Length	10 mm

Measurement date	4/9/2024 4:29 PM

Photometric Mode	CD, HT
Measure Range	350 - 190 nm
Data pitch	0.1 nm
Sensitivity	Standard
D.I.T.	1 sec
Bandwidth	1.00 nm
Start Mode	Immediately
Scanning Speed	50 nm/min
Baseline Correction	None
Shutter Control	Auto
CD Detector	PMT
PMT Voltage	Auto
Accumulations	3
Concentration	0.27 umol/L

