TITLE	cal_0.6uM
DATA TYPE	
ORIGIN	JASCO
OWNER	
DATE	24/04/09
TIME	15:30:12
SPECTROMETER/DATA SYSTEM	
LOCALE	1033
RESOLUTION	
DELTAX	-0.1
XUNITS	NANOMETERS
YUNITS	Mol. Ellip.
Y2UNITS	HT [V]
FIRSTX	  350.0000
LASTX	  190.0000
NPOINTS	    1601
FIRSTY	833333.31250
MAXY	3598074.50000
MINY	-2384375.50000
XYDATA
350.0000	833333	488.125
349.9000	926760	487.493
349.8000	285494	486.549
349.7000	341907	485.604
349.6000	706505	484.929
349.5000	1.15356E+006	484.352
349.4000	962474	483.458
349.3000	663098	482.818
349.2000	627607	482.28
349.1000	701737	481.424
349.0000	1.14135E+006	480.794
348.9000	1.32351E+006	480.234
348.8000	1.04744E+006	479.356
348.7000	546086	478.461
348.6000	631622	477.816
348.5000	642504	477.251
348.4000	638054	476.344
348.3000	372622	475.665
348.2000	213502	475.074
348.1000	352209	474.198
348.0000	437004	473.538
347.9000	654373	472.964
347.8000	623901	472.099
347.7000	667949	471.222
347.6000	838712	470.605
347.5000	1.14718E+006	470.093
347.4000	1.06914E+006	469.279
347.3000	564804	468.661
347.2000	251622	468.135
347.1000	206526	467.342
347.0000	62804	466.749
346.9000	-229164	466.232
346.8000	-470696	465.433
346.7000	-666481	464.624
346.6000	-774809	464.026
346.5000	-732606	463.252
346.4000	-561840	462.471
346.3000	-598606	461.876
346.2000	-713821	461.089
346.1000	-487870	460.292
346.0000	-350291	459.708
345.9000	-463724	459.197
345.8000	-206657	458.405
345.7000	23580.5	457.817
345.6000	304955	457.305
345.5000	558893	456.559
345.4000	862248	456.02
345.3000	725096	455.554
345.2000	956383	454.829
345.1000	1.33603E+006	454.095
345.0000	1.44376E+006	453.555
344.9000	1.44802E+006	452.862
344.8000	1.30547E+006	452.154
344.7000	1.03746E+006	451.605
344.6000	599166	450.903
344.5000	477644	450.2
344.4000	496376	449.683
344.3000	489720	448.98
344.2000	505399	448.265
344.1000	515782	447.721
344.0000	584063	447.045
343.9000	642527	446.366
343.8000	868437	445.869
343.7000	1.00124E+006	445.431
343.6000	837240	444.738
343.5000	470884	444.234
343.4000	200846	443.816
343.3000	319995	443.175
343.2000	214976	442.686
343.1000	-213631	442.253
343.0000	-321220	441.612
342.9000	-313612	440.964
342.8000	-206813	440.488
342.7000	-61604.3	439.871
342.6000	246577	439.247
342.5000	219127	438.781
342.4000	45630	438.187
342.3000	95076	437.586
342.2000	120530	437.131
342.1000	143741	436.545
342.0000	54632.4	435.95
341.9000	-791.773	435.524
341.8000	74350.1	434.946
341.7000	61279.2	434.355
341.6000	-17903	433.912
341.5000	-206687	433.363
341.4000	-106787	432.815
341.3000	-342830	432.398
341.2000	-466286	431.805
341.1000	-369141	431.202
341.0000	-456760	430.759
340.9000	-684008	430.197
340.8000	-872943	429.629
340.7000	-712988	429.184
340.6000	-521918	428.617
340.5000	-413690	428.039
340.4000	-278668	427.635
340.3000	-232653	427.109
340.2000	-47166.8	426.578
340.1000	20315.1	426.187
340.0000	155431	425.687
339.9000	219535	425.183
339.8000	109659	424.803
339.7000	-80110	424.324
339.6000	-206052	423.839
339.5000	-57384.7	423.503
339.4000	-202007	423.021
339.3000	-301068	422.519
339.2000	-220678	421.987
339.1000	-294776	421.51
339.0000	-320720	421.022
338.9000	-114392	420.463
338.8000	119562	419.95
338.7000	4170.49	419.425
338.6000	5424.18	418.865
338.5000	156304	418.378
338.4000	307782	418.01
338.3000	434590	417.536
338.2000	738600	417.058
338.1000	614596	416.707
338.0000	350593	416.259
337.9000	395885	415.813
337.8000	337124	415.498
337.7000	143086	415.092
337.6000	-36487.2	414.677
337.5000	421.176	414.371
337.4000	37268.5	413.976
337.3000	-12259	413.567
337.2000	94856.8	413.098
337.1000	-3607.39	412.671
337.0000	-151663	412.234
336.9000	-101455	411.764
336.8000	-152682	411.347
336.7000	-280636	410.924
336.6000	-379261	410.455
336.5000	-405584	410.028
336.4000	-496478	409.727
336.3000	-477807	409.324
336.2000	-497083	408.914
336.1000	-548404	408.608
336.0000	-474619	408.218
335.9000	-387650	407.813
335.8000	-481448	407.366
335.7000	-635532	406.96
335.6000	-457979	406.552
335.5000	-368458	406.133
335.4000	-368879	405.765
335.3000	-289962	405.391
335.2000	-501131	404.98
335.1000	-537987	404.619
335.0000	-588326	404.369
334.9000	-431742	404.029
334.8000	-643885	403.673
334.7000	-843710	403.289
334.6000	-676911	402.955
334.5000	-573672	402.612
334.4000	-413127	402.215
334.3000	-318267	401.852
334.2000	-357385	401.477
334.1000	-594701	401.067
334.0000	-636607	400.71
333.9000	-633384	400.446
333.8000	-841143	400.088
333.7000	-1.06986E+006	399.719
333.6000	-1.20671E+006	399.329
333.5000	-1.1972E+006	398.992
333.4000	-1.11085E+006	398.653
333.3000	-979453	398.292
333.2000	-782704	397.977
333.1000	-428272	397.663
333.0000	-284311	397.321
332.9000	-205175	397.021
332.8000	-49799.2	396.675
332.7000	-69790.8	396.361
332.6000	-322677	396.039
332.5000	-405891	395.699
332.4000	-418348	395.403
332.3000	-801625	395.089
332.2000	-756190	394.732
332.1000	-558069	394.406
332.0000	-692686	394.056
331.9000	-830696	393.76
331.8000	-933179	393.462
331.7000	-788107	393.123
331.6000	-670407	392.806
331.5000	-428048	392.379
331.4000	-511621	392.045
331.3000	-564566	391.758
331.2000	-394154	391.438
331.1000	-178567	391.154
331.0000	-130472	390.862
330.9000	-235331	390.559
330.8000	-360814	390.293
330.7000	-397103	389.985
330.6000	-394427	389.708
330.5000	-451460	389.426
330.4000	-561579	389.127
330.3000	-515364	388.871
330.2000	-366490	388.495
330.1000	-326077	388.181
330.0000	-206124	387.904
329.9000	-223977	387.608
329.8000	-238140	387.352
329.7000	-467779	386.993
329.6000	-457201	386.709
329.5000	-536702	386.454
329.4000	-549384	386.163
329.3000	-414501	385.91
329.2000	-277054	385.548
329.1000	-388227	385.255
329.0000	-423805	384.998
328.9000	-392435	384.732
328.8000	-690930	384.488
328.7000	-978948	384.133
328.6000	-1.09672E+006	383.867
328.5000	-1.28787E+006	383.64
328.4000	-1.42583E+006	383.378
328.3000	-1.28788E+006	383.155
328.2000	-1.28276E+006	382.853
328.1000	-1.18735E+006	382.607
328.0000	-994303	382.386
327.9000	-568793	382.14
327.8000	-427371	381.921
327.7000	-418405	381.649
327.6000	-471632	381.457
327.5000	-625812	381.298
327.4000	-716035	381.023
327.3000	-803672	380.766
327.2000	-703694	380.465
327.1000	-791325	380.234
327.0000	-1.04005E+006	380.036
326.9000	-1.17351E+006	379.752
326.8000	-1.08947E+006	379.477
326.7000	-1.06133E+006	379.154
326.6000	-1.11634E+006	378.951
326.5000	-1.11053E+006	378.813
326.4000	-1.19472E+006	378.557
326.3000	-1.25693E+006	378.309
326.2000	-1.15193E+006	378.035
326.1000	-971701	377.848
326.0000	-978550	377.553
325.9000	-860904	377.291
325.8000	-728948	377.041
325.7000	-494184	376.784
325.6000	-409852	376.629
325.5000	-362674	376.335
325.4000	-401232	376.052
325.3000	-384394	375.775
325.2000	-267023	375.599
325.1000	-248023	375.472
325.0000	-396567	375.186
324.9000	-592479	374.898
324.8000	-765550	374.598
324.7000	-767794	374.44
324.6000	-799609	374.353
324.5000	-894486	374.085
324.4000	-966995	373.813
324.3000	-1.12262E+006	373.557
324.2000	-1.22768E+006	373.408
324.1000	-1.16779E+006	373.141
324.0000	-1.19898E+006	372.871
323.9000	-1.17786E+006	372.599
323.8000	-1.18437E+006	372.351
323.7000	-1.08354E+006	372.229
323.6000	-922297	371.965
323.5000	-749152	371.677
323.4000	-634915	371.4
323.3000	-548512	371.253
323.2000	-383669	371.168
323.1000	-181852	370.902
323.0000	-140895	370.606
322.9000	-109276	370.313
322.8000	-171048	370.162
322.7000	-368766	369.903
322.6000	-453921	369.619
322.5000	-464059	369.34
322.4000	-546159	369.057
322.3000	-698988	368.887
322.2000	-631867	368.606
322.1000	-570306	368.3
322.0000	-620829	368.003
321.9000	-597841	367.836
321.8000	-637005	367.55
321.7000	-635217	367.248
321.6000	-605965	366.931
321.5000	-544785	366.641
321.4000	-580905	366.489
321.3000	-637745	366.266
321.2000	-544318	366.035
321.1000	-414765	365.804
321.0000	-397659	365.719
320.9000	-381835	365.557
320.8000	-534046	365.396
320.7000	-612919	365.25
320.6000	-717404	365.103
320.5000	-832322	365.061
320.4000	-1.02053E+006	364.9
320.3000	-1.13144E+006	364.729
320.2000	-1.12002E+006	364.566
320.1000	-993779	364.514
320.0000	-891402	364.358
319.9000	-792541	364.178
319.8000	-681609	363.983
319.7000	-558017	363.782
319.6000	-484723	363.554
319.5000	-451099	363.38
319.4000	-520299	363.188
319.3000	-718250	362.968
319.2000	-912536	362.855
319.1000	-888240	362.654
319.0000	-937381	362.439
318.9000	-1.05096E+006	362.221
318.8000	-974697	362.107
318.7000	-922518	361.891
318.6000	-763538	361.665
318.5000	-583115	361.467
318.4000	-297051	361.268
318.3000	-295857	361.037
318.2000	-248362	360.862
318.1000	-180858	360.687
318.0000	-161245	360.503
317.9000	-134195	360.427
317.8000	-290033	360.288
317.7000	-363543	360.131
317.6000	-607531	359.942
317.5000	-784052	359.845
317.4000	-917300	359.684
317.3000	-1.05055E+006	359.513
317.2000	-1.08441E+006	359.325
317.1000	-1.25733E+006	359.127
317.0000	-1.23162E+006	358.88
316.9000	-1.08913E+006	358.676
316.8000	-913043	358.492
316.7000	-700696	358.308
316.6000	-649530	358.118
316.5000	-547872	357.963
316.4000	-444325	357.796
316.3000	-293415	357.629
316.2000	-256656	357.463
316.1000	-388455	357.344
316.0000	-591340	357.217
315.9000	-730518	357.047
315.8000	-686610	356.937
315.7000	-535613	356.767
315.6000	-618130	356.61
315.5000	-699342	356.431
315.4000	-783856	356.318
315.3000	-617100	356.12
315.2000	-453400	355.914
315.1000	-339635	355.73
315.0000	-299017	355.555
314.9000	-385420	355.375
314.8000	-454109	355.224
314.7000	-448242	355.064
314.6000	-404798	354.907
314.5000	-467298	354.755
314.4000	-596323	354.642
314.3000	-677319	354.508
314.2000	-714926	354.375
314.1000	-742164	354.196
314.0000	-823652	354.034
313.9000	-805996	353.877
313.8000	-791747	353.727
313.7000	-718379	353.513
313.6000	-636589	353.318
313.5000	-751021	353.128
313.4000	-719707	352.945
313.3000	-754449	352.77
313.2000	-645977	352.628
313.1000	-597162	352.473
313.0000	-640674	352.316
312.9000	-779489	352.168
312.8000	-823417	352.062
312.7000	-763076	351.936
312.6000	-887739	351.808
312.5000	-1.00656E+006	351.637
312.4000	-1.04547E+006	351.482
312.3000	-1.07141E+006	351.305
312.2000	-1.12501E+006	351.131
312.1000	-963643	350.911
312.0000	-854803	350.706
311.9000	-859381	350.506
311.8000	-796477	350.266
311.7000	-755025	350.081
311.6000	-788290	349.893
311.5000	-774356	349.74
311.4000	-771587	349.541
311.3000	-800905	349.416
311.2000	-976957	349.293
311.1000	-988169	349.191
311.0000	-1.11672E+006	349.068
310.9000	-1.16819E+006	348.968
310.8000	-1.18869E+006	348.857
310.7000	-1.29073E+006	348.758
310.6000	-1.27925E+006	348.623
310.5000	-1.36311E+006	348.509
310.4000	-1.34518E+006	348.409
310.3000	-1.39922E+006	348.316
310.2000	-1.30291E+006	348.232
310.1000	-1.14147E+006	348.164
310.0000	-1.11872E+006	348.086
309.9000	-1.18715E+006	348.012
309.8000	-1.21706E+006	347.95
309.7000	-1.19034E+006	347.862
309.6000	-1.02906E+006	347.786
309.5000	-1.01029E+006	347.661
309.4000	-1.01779E+006	347.56
309.3000	-1.10644E+006	347.424
309.2000	-1.16508E+006	347.314
309.1000	-1.02483E+006	347.143
309.0000	-1.00949E+006	347
308.9000	-1.06858E+006	346.873
308.8000	-1.28765E+006	346.76
308.7000	-1.46137E+006	346.651
308.6000	-1.44362E+006	346.563
308.5000	-1.36078E+006	346.464
308.4000	-1.32903E+006	346.346
308.3000	-1.26775E+006	346.278
308.2000	-1.26703E+006	346.171
308.1000	-1.1558E+006	346.09
308.0000	-1.02462E+006	345.983
307.9000	-988563	345.893
307.8000	-996100	345.759
307.7000	-1.04135E+006	345.652
307.6000	-1.06959E+006	345.531
307.5000	-1.05923E+006	345.368
307.4000	-950221	345.251
307.3000	-904182	345.126
307.2000	-936808	345.029
307.1000	-910133	344.9
307.0000	-772629	344.808
306.9000	-809758	344.706
306.8000	-792494	344.639
306.7000	-832968	344.568
306.6000	-895067	344.474
306.5000	-1.04961E+006	344.391
306.4000	-1.09963E+006	344.268
306.3000	-1.03213E+006	344.179
306.2000	-1.03935E+006	344.06
306.1000	-1.05937E+006	343.956
306.0000	-1.11553E+006	343.814
305.9000	-1.0891E+006	343.711
305.8000	-1.11077E+006	343.633
305.7000	-948768	343.525
305.6000	-922105	343.444
305.5000	-968394	343.363
305.4000	-1.06233E+006	343.31
305.3000	-1.18904E+006	343.219
305.2000	-1.22664E+006	343.155
305.1000	-1.33001E+006	343.075
305.0000	-1.31874E+006	342.955
304.9000	-1.45176E+006	342.872
304.8000	-1.57745E+006	342.761
304.7000	-1.64311E+006	342.665
304.6000	-1.66474E+006	342.535
304.5000	-1.6737E+006	342.427
304.4000	-1.63265E+006	342.341
304.3000	-1.65488E+006	342.226
304.2000	-1.66916E+006	342.16
304.1000	-1.72129E+006	342.095
304.0000	-1.78829E+006	342.057
303.9000	-1.73846E+006	341.978
303.8000	-1.6796E+006	341.902
303.7000	-1.59985E+006	341.855
303.6000	-1.55366E+006	341.754
303.5000	-1.49843E+006	341.685
303.4000	-1.44928E+006	341.597
303.3000	-1.38333E+006	341.486
303.2000	-1.33227E+006	341.378
303.1000	-1.44266E+006	341.289
303.0000	-1.49746E+006	341.237
302.9000	-1.46971E+006	341.146
302.8000	-1.42333E+006	341.071
302.7000	-1.38433E+006	341.015
302.6000	-1.40583E+006	340.93
302.5000	-1.4328E+006	340.882
302.4000	-1.33867E+006	340.825
302.3000	-1.26783E+006	340.732
302.2000	-1.15259E+006	340.642
302.1000	-1.10438E+006	340.549
302.0000	-1.04132E+006	340.489
301.9000	-1.15554E+006	340.397
301.8000	-1.18814E+006	340.319
301.7000	-1.2605E+006	340.256
301.6000	-1.33332E+006	340.165
301.5000	-1.3769E+006	340.115
301.4000	-1.42506E+006	340.062
301.3000	-1.60238E+006	339.982
301.2000	-1.82039E+006	339.909
301.1000	-1.89139E+006	339.843
301.0000	-1.94246E+006	339.807
300.9000	-1.88617E+006	339.729
300.8000	-1.88017E+006	339.651
300.7000	-1.75738E+006	339.591
300.6000	-1.67919E+006	339.51
300.5000	-1.55333E+006	339.446
300.4000	-1.46736E+006	339.397
300.3000	-1.48418E+006	339.319
300.2000	-1.33851E+006	339.248
300.1000	-1.35087E+006	339.193
300.0000	-1.24348E+006	339.132
299.9000	-1.30146E+006	339.079
299.8000	-1.45667E+006	339.022
299.7000	-1.38947E+006	338.955
299.6000	-1.36052E+006	338.895
299.5000	-1.22162E+006	338.834
299.4000	-1.17023E+006	338.785
299.3000	-1.11044E+006	338.714
299.2000	-1.13689E+006	338.66
299.1000	-1.10183E+006	338.619
299.0000	-936098	338.559
298.9000	-854432	338.513
298.8000	-862294	338.475
298.7000	-861076	338.423
298.6000	-911392	338.376
298.5000	-942794	338.329
298.4000	-817485	338.271
298.3000	-874299	338.214
298.2000	-901908	338.153
298.1000	-993718	338.09
298.0000	-1.05643E+006	338.036
297.9000	-1.03225E+006	337.984
297.8000	-1.00352E+006	337.914
297.7000	-867793	337.86
297.6000	-931979	337.814
297.5000	-1.02447E+006	337.746
297.4000	-1.05457E+006	337.698
297.3000	-1.19832E+006	337.655
297.2000	-1.20424E+006	337.587
297.1000	-1.35157E+006	337.534
297.0000	-1.42315E+006	337.486
296.9000	-1.5535E+006	337.415
296.8000	-1.62098E+006	337.361
296.7000	-1.59154E+006	337.32
296.6000	-1.58958E+006	337.29
296.5000	-1.49303E+006	337.246
296.4000	-1.48281E+006	337.214
296.3000	-1.44832E+006	337.191
296.2000	-1.50548E+006	337.147
296.1000	-1.55481E+006	337.112
296.0000	-1.6478E+006	337.085
295.9000	-1.68546E+006	337.038
295.8000	-1.73824E+006	336.97
295.7000	-1.83025E+006	336.925
295.6000	-1.91142E+006	336.877
295.5000	-2.0188E+006	336.808
295.4000	-1.95408E+006	336.736
295.3000	-1.86401E+006	336.693
295.2000	-1.92085E+006	336.636
295.1000	-1.91574E+006	336.57
295.0000	-1.92077E+006	336.533
294.9000	-1.90969E+006	336.485
294.8000	-1.79733E+006	336.42
294.7000	-1.67225E+006	336.38
294.6000	-1.69E+006	336.346
294.5000	-1.76306E+006	336.296
294.4000	-1.83456E+006	336.253
294.3000	-1.8502E+006	336.225
294.2000	-1.86767E+006	336.177
294.1000	-1.74865E+006	336.142
294.0000	-1.68744E+006	336.122
293.9000	-1.74739E+006	336.073
293.8000	-1.65839E+006	336.044
293.7000	-1.67065E+006	336.02
293.6000	-1.57506E+006	335.973
293.5000	-1.48886E+006	335.915
293.4000	-1.4832E+006	335.883
293.3000	-1.46115E+006	335.836
293.2000	-1.48682E+006	335.778
293.1000	-1.50887E+006	335.753
293.0000	-1.54745E+006	335.705
292.9000	-1.52361E+006	335.653
292.8000	-1.44903E+006	335.632
292.7000	-1.46746E+006	335.604
292.6000	-1.44811E+006	335.564
292.5000	-1.45147E+006	335.507
292.4000	-1.43311E+006	335.472
292.3000	-1.38163E+006	335.422
292.2000	-1.27906E+006	335.37
292.1000	-1.18486E+006	335.342
292.0000	-1.37152E+006	335.29
291.9000	-1.43931E+006	335.229
291.8000	-1.48048E+006	335.181
291.7000	-1.47689E+006	335.158
291.6000	-1.48983E+006	335.113
291.5000	-1.55406E+006	335.064
291.4000	-1.63378E+006	335.04
291.3000	-1.67919E+006	334.989
291.2000	-1.63597E+006	334.927
291.1000	-1.49721E+006	334.867
291.0000	-1.46769E+006	334.819
290.9000	-1.56077E+006	334.75
290.8000	-1.69541E+006	334.661
290.7000	-1.78794E+006	334.57
290.6000	-1.84472E+006	334.465
290.5000	-1.86931E+006	334.344
290.4000	-1.90815E+006	334.212
290.3000	-1.93801E+006	334.097
290.2000	-1.89876E+006	333.957
290.1000	-1.89828E+006	333.802
290.0000	-1.84696E+006	333.661
289.9000	-1.7443E+006	333.557
289.8000	-1.68633E+006	333.457
289.7000	-1.6875E+006	333.379
289.6000	-1.68547E+006	333.345
289.5000	-1.69492E+006	333.35
289.4000	-1.61697E+006	333.38
289.3000	-1.58546E+006	333.448
289.2000	-1.51545E+006	333.537
289.1000	-1.44685E+006	333.646
289.0000	-1.39723E+006	333.751
288.9000	-1.34881E+006	333.86
288.8000	-1.31525E+006	333.959
288.7000	-1.24126E+006	334.045
288.6000	-1.31877E+006	334.112
288.5000	-1.40416E+006	334.162
288.4000	-1.33653E+006	334.196
288.3000	-1.3587E+006	334.224
288.2000	-1.3972E+006	334.23
288.1000	-1.44878E+006	334.224
288.0000	-1.52235E+006	334.203
287.9000	-1.56068E+006	334.168
287.8000	-1.58994E+006	334.147
287.7000	-1.65145E+006	334.117
287.6000	-1.73547E+006	334.094
287.5000	-1.86507E+006	334.052
287.4000	-2.00686E+006	334.028
287.3000	-2.02566E+006	334.014
287.2000	-1.94535E+006	333.998
287.1000	-1.93578E+006	333.986
287.0000	-1.96479E+006	333.948
286.9000	-1.8917E+006	333.93
286.8000	-1.86326E+006	333.918
286.7000	-1.89612E+006	333.899
286.6000	-1.74315E+006	333.877
286.5000	-1.82375E+006	333.863
286.4000	-1.94564E+006	333.849
286.3000	-2.02978E+006	333.846
286.2000	-2.04035E+006	333.84
286.1000	-2.04742E+006	333.827
286.0000	-2.04096E+006	333.831
285.9000	-2.00203E+006	333.825
285.8000	-2.08242E+006	333.823
285.7000	-2.063E+006	333.799
285.6000	-1.89428E+006	333.785
285.5000	-1.69265E+006	333.794
285.4000	-1.63746E+006	333.798
285.3000	-1.60825E+006	333.81
285.2000	-1.58601E+006	333.788
285.1000	-1.50258E+006	333.783
285.0000	-1.38651E+006	333.796
284.9000	-1.31708E+006	333.797
284.8000	-1.2475E+006	333.805
284.7000	-1.3173E+006	333.783
284.6000	-1.3777E+006	333.766
284.5000	-1.46934E+006	333.771
284.4000	-1.57839E+006	333.772
284.3000	-1.61576E+006	333.779
284.2000	-1.65702E+006	333.754
284.1000	-1.58377E+006	333.749
284.0000	-1.61368E+006	333.73
283.9000	-1.61012E+006	333.734
283.8000	-1.59927E+006	333.749
283.7000	-1.5149E+006	333.739
283.6000	-1.3171E+006	333.735
283.5000	-1.2603E+006	333.726
283.4000	-1.19279E+006	333.727
283.3000	-1.24127E+006	333.74
283.2000	-1.15731E+006	333.755
283.1000	-1.16476E+006	333.764
283.0000	-1.21572E+006	333.749
282.9000	-1.25943E+006	333.742
282.8000	-1.31469E+006	333.729
282.7000	-1.33668E+006	333.738
282.6000	-1.35183E+006	333.752
282.5000	-1.40235E+006	333.753
282.4000	-1.50955E+006	333.749
282.3000	-1.52037E+006	333.743
282.2000	-1.4461E+006	333.741
282.1000	-1.46666E+006	333.754
282.0000	-1.49299E+006	333.767
281.9000	-1.44833E+006	333.772
281.8000	-1.49018E+006	333.767
281.7000	-1.45924E+006	333.761
281.6000	-1.38798E+006	333.758
281.5000	-1.31108E+006	333.757
281.4000	-1.34128E+006	333.776
281.3000	-1.25164E+006	333.791
281.2000	-1.0758E+006	333.798
281.1000	-1.06278E+006	333.8
281.0000	-1.07295E+006	333.802
280.9000	-1.08771E+006	333.801
280.8000	-1.10284E+006	333.796
280.7000	-1.09628E+006	333.796
280.6000	-1.04743E+006	333.8
280.5000	-988066	333.792
280.4000	-998872	333.786
280.3000	-967531	333.777
280.2000	-965359	333.768
280.1000	-899080	333.761
280.0000	-869233	333.754
279.9000	-980228	333.743
279.8000	-1.09928E+006	333.721
279.7000	-1.22955E+006	333.716
279.6000	-1.33178E+006	333.713
279.5000	-1.52055E+006	333.712
279.4000	-1.58092E+006	333.714
279.3000	-1.71849E+006	333.712
279.2000	-1.83744E+006	333.713
279.1000	-1.90819E+006	333.717
279.0000	-1.93555E+006	333.723
278.9000	-1.94212E+006	333.722
278.8000	-1.91408E+006	333.736
278.7000	-1.85822E+006	333.752
278.6000	-1.83648E+006	333.768
278.5000	-1.83413E+006	333.79
278.4000	-1.75506E+006	333.811
278.3000	-1.69363E+006	333.834
278.2000	-1.55309E+006	333.859
278.1000	-1.44215E+006	333.876
278.0000	-1.49926E+006	333.875
277.9000	-1.52007E+006	333.867
277.8000	-1.53032E+006	333.864
277.7000	-1.36699E+006	333.866
277.6000	-1.3175E+006	333.885
277.5000	-1.32143E+006	333.897
277.4000	-1.40765E+006	333.907
277.3000	-1.46082E+006	333.919
277.2000	-1.47371E+006	333.934
277.1000	-1.4048E+006	333.953
277.0000	-1.34747E+006	333.972
276.9000	-1.39167E+006	333.984
276.8000	-1.47321E+006	333.983
276.7000	-1.50317E+006	333.982
276.6000	-1.50869E+006	333.988
276.5000	-1.50361E+006	333.996
276.4000	-1.48836E+006	334.001
276.3000	-1.52269E+006	334.004
276.2000	-1.55519E+006	334.003
276.1000	-1.52693E+006	334.008
276.0000	-1.55027E+006	334.031
275.9000	-1.57541E+006	334.055
275.8000	-1.50966E+006	334.078
275.7000	-1.46422E+006	334.1
275.6000	-1.46827E+006	334.129
275.5000	-1.42849E+006	334.158
275.4000	-1.47643E+006	334.187
275.3000	-1.55367E+006	334.214
275.2000	-1.52411E+006	334.227
275.1000	-1.38373E+006	334.238
275.0000	-1.25971E+006	334.249
274.9000	-1.25082E+006	334.259
274.8000	-1.21696E+006	334.266
274.7000	-1.19219E+006	334.272
274.6000	-1.09336E+006	334.278
274.5000	-1.02848E+006	334.288
274.4000	-985751	334.301
274.3000	-964868	334.318
274.2000	-1.00496E+006	334.33
274.1000	-1.03127E+006	334.344
274.0000	-1.11214E+006	334.355
273.9000	-1.17604E+006	334.373
273.8000	-1.333E+006	334.394
273.7000	-1.4221E+006	334.418
273.6000	-1.4912E+006	334.435
273.5000	-1.44633E+006	334.449
273.4000	-1.47371E+006	334.456
273.3000	-1.45968E+006	334.469
273.2000	-1.37974E+006	334.481
273.1000	-1.31194E+006	334.49
273.0000	-1.2573E+006	334.498
272.9000	-1.2579E+006	334.502
272.8000	-1.25148E+006	334.507
272.7000	-1.39709E+006	334.517
272.6000	-1.52357E+006	334.533
272.5000	-1.62976E+006	334.553
272.4000	-1.81186E+006	334.569
272.3000	-1.90989E+006	334.588
272.2000	-1.87824E+006	334.613
272.1000	-1.74396E+006	334.644
272.0000	-1.71227E+006	334.679
271.9000	-1.59144E+006	334.711
271.8000	-1.53062E+006	334.737
271.7000	-1.40361E+006	334.76
271.6000	-1.275E+006	334.784
271.5000	-1.1404E+006	334.813
271.4000	-1.15725E+006	334.832
271.3000	-1.24098E+006	334.837
271.2000	-1.29475E+006	334.84
271.1000	-1.29181E+006	334.847
271.0000	-1.26918E+006	334.854
270.9000	-1.26254E+006	334.843
270.8000	-1.2184E+006	334.833
270.7000	-1.25266E+006	334.819
270.6000	-1.38137E+006	334.801
270.5000	-1.46968E+006	334.794
270.4000	-1.39885E+006	334.797
270.3000	-1.45914E+006	334.788
270.2000	-1.50713E+006	334.784
270.1000	-1.53398E+006	334.796
270.0000	-1.5714E+006	334.813
269.9000	-1.49018E+006	334.833
269.8000	-1.38932E+006	334.857
269.7000	-1.39054E+006	334.871
269.6000	-1.37976E+006	334.883
269.5000	-1.37569E+006	334.893
269.4000	-1.42961E+006	334.891
269.3000	-1.3637E+006	334.9
269.2000	-1.27225E+006	334.917
269.1000	-1.36692E+006	334.939
269.0000	-1.39175E+006	334.957
268.9000	-1.35281E+006	334.987
268.8000	-1.40531E+006	335.014
268.7000	-1.41037E+006	335.055
268.6000	-1.3512E+006	335.109
268.5000	-1.33512E+006	335.164
268.4000	-1.47411E+006	335.209
268.3000	-1.48146E+006	335.238
268.2000	-1.52753E+006	335.27
268.1000	-1.4903E+006	335.298
268.0000	-1.44868E+006	335.337
267.9000	-1.3723E+006	335.371
267.8000	-1.3648E+006	335.409
267.7000	-1.3736E+006	335.447
267.6000	-1.41019E+006	335.496
267.5000	-1.44599E+006	335.552
267.4000	-1.45795E+006	335.601
267.3000	-1.46778E+006	335.662
267.2000	-1.37576E+006	335.72
267.1000	-1.29301E+006	335.783
267.0000	-1.19295E+006	335.839
266.9000	-1.06901E+006	335.901
266.8000	-883140	335.951
266.7000	-799810	335.99
266.6000	-806979	336.036
266.5000	-746380	336.08
266.4000	-807995	336.128
266.3000	-884149	336.174
266.2000	-887349	336.232
266.1000	-910975	336.284
266.0000	-837688	336.328
265.9000	-816420	336.385
265.8000	-696667	336.452
265.7000	-721943	336.526
265.6000	-761761	336.596
265.5000	-701352	336.663
265.4000	-773936	336.709
265.3000	-1.00876E+006	336.744
265.2000	-1.24168E+006	336.795
265.1000	-1.40837E+006	336.857
265.0000	-1.47163E+006	336.921
264.9000	-1.55522E+006	336.985
264.8000	-1.51068E+006	337.032
264.7000	-1.58548E+006	337.079
264.6000	-1.69882E+006	337.139
264.5000	-1.67176E+006	337.22
264.4000	-1.54332E+006	337.306
264.3000	-1.48541E+006	337.373
264.2000	-1.47297E+006	337.435
264.1000	-1.44468E+006	337.494
264.0000	-1.37858E+006	337.565
263.9000	-1.24611E+006	337.643
263.8000	-1.06055E+006	337.712
263.7000	-897054	337.776
263.6000	-821733	337.838
263.5000	-805708	337.913
263.4000	-802252	337.997
263.3000	-836151	338.056
263.2000	-879765	338.12
263.1000	-946535	338.193
263.0000	-1.06791E+006	338.273
262.9000	-1.0661E+006	338.349
262.8000	-1.09308E+006	338.431
262.7000	-1.09422E+006	338.509
262.6000	-1.07636E+006	338.583
262.5000	-912431	338.676
262.4000	-876580	338.763
262.3000	-882686	338.845
262.2000	-886260	338.924
262.1000	-841922	339.017
262.0000	-788391	339.085
261.9000	-697821	339.156
261.8000	-701162	339.235
261.7000	-674803	339.304
261.6000	-652733	339.379
261.5000	-599631	339.461
261.4000	-587023	339.541
261.3000	-556161	339.608
261.2000	-590775	339.694
261.1000	-739714	339.788
261.0000	-874109	339.877
260.9000	-1.02905E+006	339.95
260.8000	-1.094E+006	340.036
260.7000	-994655	340.135
260.6000	-910529	340.223
260.5000	-907469	340.312
260.4000	-870015	340.399
260.3000	-770101	340.484
260.2000	-722249	340.553
260.1000	-761496	340.638
260.0000	-782357	340.731
259.9000	-933366	340.797
259.8000	-1.01239E+006	340.871
259.7000	-946871	340.954
259.6000	-947662	341.03
259.5000	-1.08604E+006	341.105
259.4000	-1.05208E+006	341.195
259.3000	-919053	341.272
259.2000	-824360	341.351
259.1000	-771101	341.441
259.0000	-698570	341.525
258.9000	-752487	341.602
258.8000	-888015	341.689
258.7000	-906535	341.775
258.6000	-836125	341.864
258.5000	-808019	341.96
258.4000	-796384	342.043
258.3000	-822661	342.12
258.2000	-856870	342.209
258.1000	-969065	342.297
258.0000	-910464	342.399
257.9000	-880544	342.513
257.8000	-913347	342.616
257.7000	-1.09929E+006	342.708
257.6000	-1.20593E+006	342.819
257.5000	-1.18024E+006	342.926
257.4000	-1.25691E+006	343.034
257.3000	-1.24272E+006	343.13
257.2000	-1.31323E+006	343.221
257.1000	-1.36233E+006	343.312
257.0000	-1.35808E+006	343.401
256.9000	-1.27612E+006	343.486
256.8000	-1.26757E+006	343.545
256.7000	-1.23032E+006	343.617
256.6000	-1.16295E+006	343.699
256.5000	-1.15146E+006	343.784
256.4000	-1.17459E+006	343.868
256.3000	-1.16529E+006	343.934
256.2000	-1.24138E+006	344.002
256.1000	-1.1699E+006	344.089
256.0000	-1.1531E+006	344.18
255.9000	-1.06675E+006	344.287
255.8000	-980291	344.384
255.7000	-885613	344.487
255.6000	-855539	344.592
255.5000	-890274	344.693
255.4000	-925240	344.789
255.3000	-984282	344.871
255.2000	-1.04012E+006	344.967
255.1000	-1.00662E+006	345.054
255.0000	-1.12353E+006	345.134
254.9000	-1.25298E+006	345.191
254.8000	-1.2638E+006	345.251
254.7000	-1.19295E+006	345.333
254.6000	-1.04903E+006	345.421
254.5000	-1.03372E+006	345.512
254.4000	-1.03004E+006	345.595
254.3000	-1.09289E+006	345.683
254.2000	-1.0983E+006	345.768
254.1000	-1.07486E+006	345.866
254.0000	-1.13884E+006	345.958
253.9000	-1.13982E+006	346.049
253.8000	-1.16727E+006	346.127
253.7000	-1.12019E+006	346.212
253.6000	-1.0186E+006	346.296
253.5000	-1.00797E+006	346.388
253.4000	-1.01694E+006	346.471
253.3000	-970059	346.557
253.2000	-859484	346.645
253.1000	-895241	346.729
253.0000	-949528	346.809
252.9000	-897376	346.892
252.8000	-888871	346.977
252.7000	-900279	347.062
252.6000	-904652	347.145
252.5000	-963152	347.24
252.4000	-1.00216E+006	347.324
252.3000	-974545	347.415
252.2000	-905949	347.51
252.1000	-950097	347.617
252.0000	-968419	347.719
251.9000	-979978	347.809
251.8000	-966778	347.906
251.7000	-861466	347.995
251.6000	-805182	348.098
251.5000	-855278	348.189
251.4000	-836446	348.287
251.3000	-790718	348.373
251.2000	-779436	348.453
251.1000	-708650	348.549
251.0000	-613527	348.644
250.9000	-644968	348.745
250.8000	-596683	348.841
250.7000	-455459	348.939
250.6000	-384802	349.032
250.5000	-417568	349.123
250.4000	-540153	349.225
250.3000	-655765	349.321
250.2000	-893462	349.42
250.1000	-1.04095E+006	349.51
250.0000	-1.18167E+006	349.593
249.9000	-1.34314E+006	349.687
249.8000	-1.52785E+006	349.782
249.7000	-1.64344E+006	349.887
249.6000	-1.59023E+006	349.985
249.5000	-1.46128E+006	350.08
249.4000	-1.34662E+006	350.186
249.3000	-1.34908E+006	350.292
249.2000	-1.17439E+006	350.4
249.1000	-1.0256E+006	350.515
249.0000	-876826	350.622
248.9000	-775685	350.717
248.8000	-831061	350.817
248.7000	-835348	350.92
248.6000	-813066	351.018
248.5000	-762905	351.111
248.4000	-812578	351.199
248.3000	-900965	351.279
248.2000	-883432	351.367
248.1000	-1.01628E+006	351.462
248.0000	-1.05516E+006	351.56
247.9000	-1.13452E+006	351.66
247.8000	-1.17304E+006	351.754
247.7000	-1.27207E+006	351.838
247.6000	-1.16578E+006	351.944
247.5000	-1.13658E+006	352.053
247.4000	-1.09661E+006	352.154
247.3000	-939153	352.247
247.2000	-816193	352.336
247.1000	-663608	352.407
247.0000	-608367	352.472
246.9000	-587119	352.546
246.8000	-596911	352.606
246.7000	-715663	352.66
246.6000	-742358	352.721
246.5000	-881338	352.792
246.4000	-833452	352.862
246.3000	-775508	352.936
246.2000	-790575	353.018
246.1000	-783848	353.112
246.0000	-745653	353.214
245.9000	-627846	353.324
245.8000	-606266	353.429
245.7000	-568125	353.537
245.6000	-629340	353.643
245.5000	-639670	353.753
245.4000	-619280	353.86
245.3000	-594963	353.959
245.2000	-594456	354.074
245.1000	-699478	354.184
245.0000	-727862	354.295
244.9000	-700936	354.406
244.8000	-760804	354.508
244.7000	-915931	354.62
244.6000	-1.10113E+006	354.737
244.5000	-1.24318E+006	354.858
244.4000	-1.28927E+006	354.963
244.3000	-1.16219E+006	355.059
244.2000	-1.04065E+006	355.159
244.1000	-938099	355.265
244.0000	-849833	355.366
243.9000	-812390	355.463
243.8000	-664444	355.56
243.7000	-556826	355.657
243.6000	-509580	355.752
243.5000	-609530	355.853
243.4000	-692398	355.967
243.3000	-969505	356.076
243.2000	-1.20914E+006	356.188
243.1000	-1.21509E+006	356.308
243.0000	-1.30905E+006	356.426
242.9000	-1.37679E+006	356.546
242.8000	-1.35929E+006	356.666
242.7000	-1.31163E+006	356.785
242.6000	-1.23605E+006	356.902
242.5000	-1.13377E+006	357.016
242.4000	-903741	357.142
242.3000	-766510	357.268
242.2000	-670829	357.393
242.1000	-640420	357.515
242.0000	-613906	357.64
241.9000	-651343	357.765
241.8000	-741379	357.88
241.7000	-778280	357.993
241.6000	-849709	358.098
241.5000	-946849	358.204
241.4000	-1.09353E+006	358.314
241.3000	-1.05788E+006	358.43
241.2000	-961678	358.549
241.1000	-943049	358.664
241.0000	-926389	358.787
240.9000	-973287	358.913
240.8000	-1.16011E+006	359.037
240.7000	-1.22066E+006	359.163
240.6000	-1.14521E+006	359.294
240.5000	-1.19193E+006	359.43
240.4000	-1.29334E+006	359.568
240.3000	-1.25704E+006	359.717
240.2000	-1.1905E+006	359.868
240.1000	-1.08312E+006	360.025
240.0000	-913317	360.183
239.9000	-898793	360.335
239.8000	-993120	360.488
239.7000	-972137	360.639
239.6000	-971407	360.787
239.5000	-1.01499E+006	360.936
239.4000	-1.06727E+006	361.084
239.3000	-1.00276E+006	361.233
239.2000	-1.10807E+006	361.375
239.1000	-1.22026E+006	361.525
239.0000	-1.20918E+006	361.681
238.9000	-1.20585E+006	361.836
238.8000	-1.20884E+006	361.991
238.7000	-1.34479E+006	362.141
238.6000	-1.54761E+006	362.279
238.5000	-1.73232E+006	362.413
238.4000	-1.80106E+006	362.558
238.3000	-1.69824E+006	362.711
238.2000	-1.58058E+006	362.864
238.1000	-1.67191E+006	363.012
238.0000	-1.70273E+006	363.164
237.9000	-1.46816E+006	363.327
237.8000	-1.23983E+006	363.494
237.7000	-980605	363.667
237.6000	-769772	363.841
237.5000	-648331	364.016
237.4000	-606852	364.19
237.3000	-387342	364.37
237.2000	-225454	364.552
237.1000	-255321	364.724
237.0000	-363958	364.899
236.9000	-409354	365.079
236.8000	-548620	365.256
236.7000	-661492	365.436
236.6000	-783594	365.611
236.5000	-906121	365.791
236.4000	-939854	365.972
236.3000	-973322	366.154
236.2000	-1.02653E+006	366.339
236.1000	-1.05355E+006	366.517
236.0000	-1.02029E+006	366.699
235.9000	-1.07191E+006	366.877
235.8000	-1.04557E+006	367.059
235.7000	-1.00854E+006	367.231
235.6000	-935446	367.399
235.5000	-862734	367.57
235.4000	-807178	367.747
235.3000	-756438	367.921
235.2000	-765535	368.098
235.1000	-652887	368.279
235.0000	-622609	368.461
234.9000	-701891	368.646
234.8000	-871655	368.833
234.7000	-990118	369.029
234.6000	-1.21392E+006	369.216
234.5000	-1.17641E+006	369.415
234.4000	-1.38536E+006	369.618
234.3000	-1.46499E+006	369.816
234.2000	-1.41274E+006	370.014
234.1000	-1.22613E+006	370.22
234.0000	-1.24748E+006	370.415
233.9000	-1.28137E+006	370.609
233.8000	-1.1188E+006	370.805
233.7000	-1.18354E+006	370.993
233.6000	-1.27792E+006	371.178
233.5000	-1.28732E+006	371.368
233.4000	-1.30591E+006	371.557
233.3000	-1.53074E+006	371.748
233.2000	-1.57192E+006	371.951
233.1000	-1.52363E+006	372.146
233.0000	-1.74479E+006	372.34
232.9000	-1.85179E+006	372.54
232.8000	-1.66745E+006	372.752
232.7000	-1.69331E+006	372.962
232.6000	-1.87784E+006	373.166
232.5000	-2.04592E+006	373.366
232.4000	-1.97978E+006	373.558
232.3000	-2.0293E+006	373.757
232.2000	-1.97797E+006	373.953
232.1000	-1.9104E+006	374.154
232.0000	-1.92502E+006	374.346
231.9000	-1.81219E+006	374.544
231.8000	-1.48676E+006	374.745
231.7000	-1.21288E+006	374.95
231.6000	-1.15336E+006	375.161
231.5000	-1.1847E+006	375.366
231.4000	-1.13244E+006	375.575
231.3000	-969836	375.782
231.2000	-1.02692E+006	375.99
231.1000	-1.1062E+006	376.19
231.0000	-1.30828E+006	376.389
230.9000	-1.4705E+006	376.597
230.8000	-1.51058E+006	376.799
230.7000	-1.48665E+006	377.013
230.6000	-1.33813E+006	377.226
230.5000	-1.37332E+006	377.444
230.4000	-1.3412E+006	377.664
230.3000	-1.15836E+006	377.892
230.2000	-1.02839E+006	378.115
230.1000	-938146	378.342
230.0000	-762027	378.569
229.9000	-690510	378.782
229.8000	-764653	378.995
229.7000	-767994	379.199
229.6000	-705037	379.4
229.5000	-689011	379.59
229.4000	-770425	379.774
229.3000	-870037	379.954
229.2000	-1.02407E+006	380.126
229.1000	-1.09912E+006	380.304
229.0000	-1.14656E+006	380.492
228.9000	-1.15559E+006	380.683
228.8000	-1.22765E+006	380.877
228.7000	-1.22529E+006	381.087
228.6000	-1.18423E+006	381.305
228.5000	-1.01569E+006	381.538
228.4000	-995372	381.779
228.3000	-1.06827E+006	382.023
228.2000	-1.14321E+006	382.26
228.1000	-1.19033E+006	382.508
228.0000	-1.22023E+006	382.76
227.9000	-1.20559E+006	383.01
227.8000	-1.17777E+006	383.258
227.7000	-1.04974E+006	383.512
227.6000	-1.05282E+006	383.759
227.5000	-891239	384.004
227.4000	-709852	384.25
227.3000	-666206	384.498
227.2000	-596866	384.739
227.1000	-600264	384.983
227.0000	-522954	385.225
226.9000	-621347	385.454
226.8000	-745107	385.679
226.7000	-893053	385.905
226.6000	-860356	386.136
226.5000	-624251	386.364
226.4000	-617577	386.583
226.3000	-754099	386.793
226.2000	-959490	387.01
226.1000	-1.27381E+006	387.229
226.0000	-1.40188E+006	387.451
225.9000	-1.46584E+006	387.674
225.8000	-1.45114E+006	387.9
225.7000	-1.67659E+006	388.124
225.6000	-1.67863E+006	388.356
225.5000	-1.48095E+006	388.593
225.4000	-1.54125E+006	388.822
225.3000	-1.53831E+006	389.058
225.2000	-1.45069E+006	389.3
225.1000	-1.44042E+006	389.541
225.0000	-1.54078E+006	389.78
224.9000	-1.53376E+006	390.021
224.8000	-1.70439E+006	390.258
224.7000	-1.8491E+006	390.498
224.6000	-1.87621E+006	390.742
224.5000	-1.83879E+006	390.979
224.4000	-2.01309E+006	391.206
224.3000	-1.90088E+006	391.443
224.2000	-1.75421E+006	391.678
224.1000	-1.86098E+006	391.91
224.0000	-1.94079E+006	392.142
223.9000	-2.04063E+006	392.369
223.8000	-2.17036E+006	392.596
223.7000	-2.21552E+006	392.825
223.6000	-2.12836E+006	393.062
223.5000	-2.05017E+006	393.3
223.4000	-2.08598E+006	393.531
223.3000	-1.78838E+006	393.763
223.2000	-1.62343E+006	393.993
223.1000	-1.29583E+006	394.231
223.0000	-981232	394.468
222.9000	-881585	394.7
222.8000	-607780	394.934
222.7000	-459488	395.162
222.6000	-549629	395.383
222.5000	-638450	395.609
222.4000	-674278	395.83
222.3000	-679333	396.051
222.2000	-653769	396.271
222.1000	-753371	396.485
222.0000	-928463	396.699
221.9000	-1.25403E+006	396.906
221.8000	-1.53213E+006	397.113
221.7000	-1.49635E+006	397.332
221.6000	-1.41313E+006	397.554
221.5000	-1.3705E+006	397.78
221.4000	-1.48216E+006	397.996
221.3000	-1.47294E+006	398.217
221.2000	-1.45325E+006	398.44
221.1000	-1.31812E+006	398.667
221.0000	-1.20956E+006	398.894
220.9000	-1.12457E+006	399.117
220.8000	-1.2697E+006	399.336
220.7000	-1.4782E+006	399.548
220.6000	-1.56154E+006	399.766
220.5000	-1.47812E+006	399.995
220.4000	-1.40151E+006	400.216
220.3000	-1.54332E+006	400.435
220.2000	-1.36734E+006	400.666
220.1000	-1.03118E+006	400.895
220.0000	-890198	401.122
219.9000	-902298	401.35
219.8000	-925543	401.578
219.7000	-935202	401.803
219.6000	-943872	402.024
219.5000	-742152	402.253
219.4000	-746112	402.48
219.3000	-910634	402.704
219.2000	-1.06557E+006	402.931
219.1000	-940628	403.161
219.0000	-850082	403.389
218.9000	-753657	403.612
218.8000	-760767	403.84
218.7000	-914709	404.06
218.6000	-935936	404.286
218.5000	-934449	404.506
218.4000	-806420	404.734
218.3000	-772684	404.954
218.2000	-890703	405.173
218.1000	-1.01982E+006	405.391
218.0000	-1.1693E+006	405.612
217.9000	-1.15313E+006	405.835
217.8000	-1.05277E+006	406.051
217.7000	-1.09438E+006	406.27
217.6000	-1.10439E+006	406.487
217.5000	-1.2743E+006	406.708
217.4000	-1.20801E+006	406.929
217.3000	-910449	407.156
217.2000	-862775	407.383
217.1000	-984576	407.601
217.0000	-890346	407.826
216.9000	-814958	408.052
216.8000	-904047	408.273
216.7000	-933370	408.49
216.6000	-1.06407E+006	408.71
216.5000	-1.44046E+006	408.924
216.4000	-1.61526E+006	409.135
216.3000	-1.52603E+006	409.353
216.2000	-1.52344E+006	409.578
216.1000	-1.53017E+006	409.801
216.0000	-1.62313E+006	410.022
215.9000	-1.54413E+006	410.246
215.8000	-1.41494E+006	410.471
215.7000	-988322	410.709
215.6000	-952845	410.945
215.5000	-970507	411.182
215.4000	-1.10329E+006	411.411
215.3000	-1.30875E+006	411.639
215.2000	-1.45171E+006	411.866
215.1000	-1.64649E+006	412.104
215.0000	-1.98361E+006	412.336
214.9000	-2.19288E+006	412.569
214.8000	-2.27399E+006	412.799
214.7000	-2.19111E+006	413.035
214.6000	-2.18886E+006	413.273
214.5000	-1.94226E+006	413.514
214.4000	-1.79051E+006	413.758
214.3000	-1.29128E+006	414.004
214.2000	-949647	414.245
214.1000	-812474	414.484
214.0000	-690335	414.724
213.9000	-703579	414.965
213.8000	-445403	415.208
213.7000	-170164	415.457
213.6000	-188316	415.701
213.5000	-382050	415.943
213.4000	-805533	416.186
213.3000	-1.12024E+006	416.432
213.2000	-1.2313E+006	416.686
213.1000	-1.11039E+006	416.947
213.0000	-1.21937E+006	417.206
212.9000	-1.5654E+006	417.461
212.8000	-1.83841E+006	417.709
212.7000	-1.86217E+006	417.965
212.6000	-1.66187E+006	418.223
212.5000	-1.57474E+006	418.483
212.4000	-1.5578E+006	418.742
212.3000	-1.40398E+006	419
212.2000	-1.28494E+006	419.257
212.1000	-964380	419.518
212.0000	-675280	419.794
211.9000	-581129	420.071
211.8000	-609784	420.343
211.7000	-424760	420.619
211.6000	-77150.6	420.904
211.5000	182746	421.184
211.4000	326383	421.466
211.3000	273397	421.751
211.2000	43410.6	422.023
211.1000	145130	422.303
211.0000	227179	422.588
210.9000	15942	422.867
210.8000	-206252	423.145
210.7000	-574566	423.429
210.6000	-890019	423.713
210.5000	-1.26161E+006	423.998
210.4000	-1.22887E+006	424.298
210.3000	-1.05525E+006	424.606
210.2000	-1.05674E+006	424.905
210.1000	-941680	425.211
210.0000	-775741	425.518
209.9000	-564464	425.83
209.8000	-600625	426.133
209.7000	-646636	426.438
209.6000	-644858	426.741
209.5000	-629304	427.046
209.4000	-713565	427.35
209.3000	-1.00309E+006	427.652
209.2000	-1.37897E+006	427.958
209.1000	-1.82766E+006	428.257
209.0000	-2.00815E+006	428.566
208.9000	-2.092E+006	428.881
208.8000	-2.13497E+006	429.195
208.7000	-2.23246E+006	429.51
208.6000	-2.36509E+006	429.831
208.5000	-2.38438E+006	430.156
208.4000	-1.93227E+006	430.488
208.3000	-1.45206E+006	430.828
208.2000	-1.10333E+006	431.168
208.1000	-576167	431.51
208.0000	-351409	431.847
207.9000	32518	432.188
207.8000	240040	432.529
207.7000	395543	432.867
207.6000	374480	433.203
207.5000	193291	433.536
207.4000	250546	433.867
207.3000	-9371.09	434.194
207.2000	-201265	434.523
207.1000	-202776	434.858
207.0000	-173435	435.193
206.9000	-345792	435.523
206.8000	-162454	435.859
206.7000	-198057	436.189
206.6000	-318217	436.522
206.5000	-310816	436.858
206.4000	-42760.4	437.203
206.3000	-369847	437.534
206.2000	-829453	437.857
206.1000	-1.04757E+006	438.184
206.0000	-1.2236E+006	438.512
205.9000	-962271	438.85
205.8000	-618838	439.19
205.7000	-518585	439.533
205.6000	-819003	439.868
205.5000	-630931	440.217
205.4000	-476579	440.567
205.3000	-197122	440.923
205.2000	-231738	441.281
205.1000	-277934	441.641
205.0000	-726235	441.993
204.9000	-1.02269E+006	442.347
204.8000	-1.09827E+006	442.706
204.7000	-1.09786E+006	443.07
204.6000	-1.14752E+006	443.433
204.5000	-685815	443.811
204.4000	-223833	444.184
204.3000	-35660.4	444.558
204.2000	483965	444.941
204.1000	821461	445.319
204.0000	1.15448E+006	445.699
203.9000	1.22563E+006	446.073
203.8000	1.13207E+006	446.447
203.7000	874490	446.819
203.6000	617554	447.196
203.5000	697078	447.58
203.4000	485221	447.962
203.3000	419938	448.352
203.2000	80516.8	448.742
203.1000	-363262	449.135
203.0000	-293217	449.541
202.9000	-185540	449.951
202.8000	-220404	450.354
202.7000	-497367	450.758
202.6000	-619150	451.167
202.5000	-529014	451.577
202.4000	-598480	451.988
202.3000	-680939	452.401
202.2000	-229351	452.824
202.1000	-200441	453.243
202.0000	-289976	453.665
201.9000	-150188	454.101
201.8000	-200914	454.537
201.7000	-410455	454.978
201.6000	-341115	455.43
201.5000	24264.2	455.89
201.4000	226934	456.355
201.3000	288772	456.824
201.2000	843394	457.308
201.1000	1.29648E+006	457.791
201.0000	1.44466E+006	458.274
200.9000	1.10027E+006	458.754
200.8000	725384	459.24
200.7000	609657	459.742
200.6000	355728	460.252
200.5000	52109.2	460.774
200.4000	-283680	461.305
200.3000	-882616	461.842
200.2000	-1.30413E+006	462.391
200.1000	-1.15445E+006	462.952
200.0000	-702163	463.525
199.9000	-751744	464.086
199.8000	-572934	464.648
199.7000	-115211	465.205
199.6000	140131	465.755
199.5000	106065	466.304
199.4000	251927	466.851
199.3000	639250	467.403
199.2000	597816	467.954
199.1000	743479	468.514
199.0000	872332	469.077
198.9000	495888	469.646
198.8000	487366	470.234
198.7000	774778	470.838
198.6000	1.17674E+006	471.456
198.5000	1.20226E+006	472.085
198.4000	1.19946E+006	472.72
198.3000	1.30028E+006	473.362
198.2000	1.18305E+006	474.02
198.1000	1.38979E+006	474.703
198.0000	1.2437E+006	475.402
197.9000	1.18925E+006	476.114
197.8000	893078	476.825
197.7000	756797	477.55
197.6000	696526	478.281
197.5000	595181	479.016
197.4000	599509	479.739
197.3000	611442	480.437
197.2000	689776	481.097
197.1000	448073	481.712
197.0000	-80455.3	482.303
196.9000	-458822	482.877
196.8000	-540125	483.443
196.7000	-391641	484.02
196.6000	-172600	484.611
196.5000	-537523	485.219
196.4000	-658109	485.878
196.3000	-407234	486.592
196.2000	215821	487.366
196.1000	233008	488.183
196.0000	387545	489.067
195.9000	282083	490.019
195.8000	46054.6	491.059
195.7000	-229496	492.207
195.6000	-296031	493.465
195.5000	-724681	494.824
195.4000	-1.03196E+006	496.265
195.3000	-962105	497.767
195.2000	-978594	499.287
195.1000	-908043	500.797
195.0000	-963442	502.226
194.9000	-508273	503.529
194.8000	-552396	504.656
194.7000	-772291	505.607
194.6000	-1.03974E+006	506.426
194.5000	-1.27059E+006	507.141
194.4000	-1.28821E+006	507.806
194.3000	-1.49044E+006	508.443
194.2000	-1.12529E+006	509.136
194.1000	-1.05309E+006	509.937
194.0000	-1.02609E+006	510.902
193.9000	-353991	512.086
193.8000	8157.29	513.484
193.7000	-131765	515.133
193.6000	-255057	517.063
193.5000	-26455.8	519.313
193.4000	-81646	521.906
193.3000	-256969	524.847
193.2000	-281499	528.111
193.1000	-169794	531.629
193.0000	36446.6	535.313
192.9000	698540	539.054
192.8000	1.33472E+006	542.7
192.7000	1.81308E+006	546.099
192.6000	1.54076E+006	549.031
192.5000	1.74158E+006	551.436
192.4000	1.7752E+006	553.307
192.3000	1.93047E+006	554.729
192.2000	1.61086E+006	555.787
192.1000	1.11472E+006	556.586
192.0000	939244	557.288
191.9000	916850	558.06
191.8000	1.62482E+006	559.156
191.7000	1.81832E+006	560.731
191.6000	1.61128E+006	562.857
191.5000	2.21735E+006	565.597
191.4000	2.33669E+006	568.905
191.3000	2.76382E+006	572.875
191.2000	3.34946E+006	577.519
191.1000	2.99725E+006	582.817
191.0000	3.06604E+006	588.715
190.9000	2.81643E+006	595.064
190.8000	3.24491E+006	601.776
190.7000	2.89434E+006	608.654
190.6000	2.4386E+006	615.546
190.5000	2.71728E+006	622.226
190.4000	3.16224E+006	628.373
190.3000	3.59807E+006	633.787
190.2000	1.50581E+006	638.393
190.1000	1.51938E+006	642.352
190.0000	2.49111E+006	645.786

##### Extended Information
[Comments]
Sample name	cal_0.6uM
Comment
User
Division
Company	CSIR-IMTECH

[Detailed Information]
Creation date	4/9/2024 3:30 PM

Data array type	Linear data array * 2
Horizontal axis	Wavelength [nm]
Vertical axis(1)	Mol. Ellip.
Vertical axis(2)	HT [V]
Start	350 nm
End	190 nm
Data interval	0.1 nm
Data points	1601    

[Measurement Information]
Instrument Name	JASCO CD
Model Name	J-815
Serial No.	B063061168

Accessory	PTC-423S
Accessory S/N	C013945-01
  Temperature	36.91 C
  Control Sonsor	Cell
  Monitor Sensor	Cell
  Start Mode	Start immediately
  Cell Length	10 mm

Measurement date	4/9/2024 3:28 PM

Photometric Mode	CD, HT
Measure Range	350 - 190 nm
Data pitch	0.1 nm
Sensitivity	Standard
D.I.T.	1 sec
Bandwidth	1.00 nm
Start Mode	Immediately
Scanning Speed	50 nm/min
Baseline Correction	None
Shutter Control	Auto
CD Detector	PMT
PMT Voltage	Auto
Accumulations	3
Concentration	0.6 umol/L

