TITLE	ACE2_D2_0.4uM
DATA TYPE	
ORIGIN	JASCO
OWNER	
DATE	24/02/26
TIME	16:13:34
SPECTROMETER/DATA SYSTEM	
LOCALE	1033
RESOLUTION	
DELTAX	-0.1
XUNITS	NANOMETERS
YUNITS	Mol. Ellip.
Y2UNITS	HT [V]
FIRSTX	  350.0000
LASTX	  190.0000
NPOINTS	    1601
FIRSTY	165266.67188
MAXY	2704732.50000
MINY	-850521.31250
XYDATA
350.0000	165267	468.711
349.9000	156551	468.141
349.8000	139684	467.298
349.7000	179000	466.452
349.6000	172540	465.839
349.5000	53368.1	465.289
349.4000	-51547.5	464.421
349.3000	-190722	463.803
349.2000	-225804	463.28
349.1000	-250558	462.465
349.0000	-243669	461.851
348.9000	-359876	461.292
348.8000	-462571	460.438
348.7000	-469125	459.578
348.6000	-418280	458.968
348.5000	-342277	458.447
348.4000	-243493	457.611
348.3000	-236310	456.982
348.2000	-180908	456.438
348.1000	-102810	455.617
348.0000	-52987.4	455.008
347.9000	2842.71	454.475
347.8000	55267.8	453.678
347.7000	90151.2	452.867
347.6000	117190	452.288
347.5000	145539	451.799
347.4000	145799	451.013
347.3000	171908	450.423
347.2000	191110	449.913
347.1000	248902	449.146
347.0000	253403	448.568
346.9000	171917	448.062
346.8000	101532	447.29
346.7000	49563.9	446.513
346.6000	-30514.5	445.938
346.5000	-130670	445.2
346.4000	-240673	444.456
346.3000	-298359	443.901
346.2000	-349966	443.173
346.1000	-360535	442.429
346.0000	-317056	441.895
345.9000	-295722	441.438
345.8000	-248895	440.718
345.7000	-258536	440.185
345.6000	-233390	439.727
345.5000	-190854	439.039
345.4000	-134195	438.532
345.3000	-146421	438.093
345.2000	-152734	437.404
345.1000	-146307	436.694
345.0000	-144101	436.174
344.9000	-121908	435.495
344.8000	-92602.3	434.799
344.7000	-67982.2	434.266
344.6000	-67923.5	433.6
344.5000	-52855.7	432.931
344.4000	-33687.8	432.439
344.3000	-16782.6	431.797
344.2000	-7901.25	431.144
344.1000	-8184.31	430.655
344.0000	26326	430.031
343.9000	88693.5	429.4
343.8000	93588.8	428.924
343.7000	133335	428.507
343.6000	152615	427.873
343.5000	98119.1	427.402
343.4000	53897.9	427.003
343.3000	41401.4	426.373
343.2000	-11638.9	425.909
343.1000	-102274	425.504
343.0000	-186864	424.914
342.9000	-241351	424.316
342.8000	-256733	423.875
342.7000	-266764	423.275
342.6000	-191548	422.674
342.5000	-155728	422.233
342.4000	-76443.5	421.689
342.3000	-4274.24	421.136
342.2000	44199.4	420.713
342.1000	31880.7	420.157
342.0000	-55756.1	419.586
341.9000	-106691	419.18
341.8000	-113982	418.652
341.7000	-144247	418.112
341.6000	-173692	417.705
341.5000	-180954	417.161
341.4000	-164745	416.606
341.3000	-120474	416.191
341.2000	-89325.2	415.657
341.1000	-51081.6	415.116
341.0000	-63836.2	414.715
340.9000	-116535	414.178
340.8000	-183938	413.628
340.7000	-239718	413.22
340.6000	-265319	412.719
340.5000	-306508	412.21
340.4000	-291340	411.835
340.3000	-278323	411.325
340.2000	-251589	410.803
340.1000	-186677	410.426
340.0000	-128091	409.951
339.9000	-71135.2	409.459
339.8000	-41230	409.08
339.7000	-11196.9	408.598
339.6000	19229.6	408.104
339.5000	75814.3	407.749
339.4000	117813	407.287
339.3000	106244	406.806
339.2000	91132.6	406.279
339.1000	98933.2	405.815
339.0000	87793.5	405.347
338.9000	65426.1	404.832
338.8000	68526.5	404.375
338.7000	57840.5	403.913
338.6000	86250.8	403.402
338.5000	134547	402.947
338.4000	180816	402.611
338.3000	186772	402.202
338.2000	180760	401.785
338.1000	182630	401.479
338.0000	213438	401.068
337.9000	178726	400.646
337.8000	104914	400.348
337.7000	54875.7	399.958
337.6000	-2645.11	399.561
337.5000	-51196.5	399.259
337.4000	-71875.3	398.847
337.3000	-106784	398.423
337.2000	-157655	397.966
337.1000	-169865	397.564
337.0000	-164058	397.157
336.9000	-161610	396.724
336.8000	-180952	396.339
336.7000	-201268	395.943
336.6000	-217516	395.517
336.5000	-227345	395.138
336.4000	-217120	394.868
336.3000	-209687	394.502
336.2000	-211873	394.127
336.1000	-186214	393.849
336.0000	-186984	393.492
335.9000	-158316	393.121
335.8000	-152806	392.706
335.7000	-160891	392.335
335.6000	-157990	391.959
335.5000	-182812	391.558
335.4000	-177738	391.207
335.3000	-142426	390.853
335.2000	-105529	390.474
335.1000	-88485.7	390.134
335.0000	-63106.5	389.905
334.9000	5667.11	389.589
334.8000	45045.5	389.258
334.7000	73551.7	388.892
334.6000	74851.7	388.565
334.5000	44178	388.23
334.4000	12608.6	387.853
334.3000	29462.2	387.518
334.2000	20577.2	387.174
334.1000	-28104.9	386.795
334.0000	-52680.2	386.465
333.9000	-37883	386.231
333.8000	28484.1	385.926
333.7000	56048.3	385.605
333.6000	21791.3	385.239
333.5000	-29207.9	384.912
333.4000	-68087.3	384.58
333.3000	-53483.8	384.233
333.2000	-45158.4	383.928
333.1000	-48439.8	383.618
333.0000	-83521.8	383.284
332.9000	-148681	382.983
332.8000	-151740	382.654
332.7000	-110466	382.376
332.6000	-80769.1	382.092
332.5000	-83649.7	381.775
332.4000	-68802.6	381.498
332.3000	-36657.2	381.214
332.2000	18669.6	380.9
332.1000	48186.2	380.614
332.0000	93433.4	380.293
331.9000	77506.3	380.013
331.8000	70798.8	379.728
331.7000	63887.3	379.42
331.6000	63506.3	379.143
331.5000	37192.3	378.742
331.4000	-43847.7	378.413
331.3000	-105224	378.116
331.2000	-144747	377.819
331.1000	-157123	377.563
331.0000	-140703	377.298
330.9000	-133823	377.008
330.8000	-128835	376.747
330.7000	-124634	376.462
330.6000	-88221	376.218
330.5000	-23198.4	375.976
330.4000	29867.8	375.693
330.3000	18774.2	375.43
330.2000	-7656.35	375.071
330.1000	-12840.5	374.782
330.0000	-6094.61	374.526
329.9000	-4451.75	374.229
329.8000	-33141.3	373.968
329.7000	-52596	373.619
329.6000	-69979.3	373.346
329.5000	-52382.2	373.117
329.4000	-40829.7	372.843
329.3000	-47164.9	372.6
329.2000	-60594.2	372.263
329.1000	-57361.9	372.013
329.0000	-70229.9	371.803
328.9000	-97105.7	371.55
328.8000	-92455.8	371.322
328.7000	-110463	371.019
328.6000	-100033	370.796
328.5000	-92114	370.611
328.4000	-93399	370.359
328.3000	-79331	370.132
328.2000	-70933.5	369.873
328.1000	-30724.6	369.693
328.0000	-22036	369.545
327.9000	-19000.2	369.272
327.8000	-32920.8	369.011
327.7000	-46811.9	368.759
327.6000	-71662.1	368.609
327.5000	-93642.9	368.506
327.4000	-101306	368.224
327.3000	-92569	367.936
327.2000	-80472.6	367.651
327.1000	-79034.4	367.491
327.0000	-57649.7	367.394
326.9000	-25798.3	367.12
326.8000	-24611.2	366.816
326.7000	-5792.49	366.529
326.6000	7136.79	366.386
326.5000	-23907.2	366.314
326.4000	-74902.1	366.034
326.3000	-111738	365.735
326.2000	-164751	365.466
326.1000	-186780	365.318
326.0000	-133037	365.032
325.9000	-114578	364.724
325.8000	-131058	364.402
325.7000	-117621	364.128
325.6000	-101689	364.002
325.5000	-78096.3	363.736
325.4000	-44787.6	363.442
325.3000	-31917.1	363.129
325.2000	-31424.2	363.013
325.1000	-34812.4	362.979
325.0000	-46206.2	362.747
324.9000	-50901.8	362.472
324.8000	-48979.7	362.205
324.7000	-36286.9	362.102
324.6000	-10428.9	362.079
324.5000	-24743.9	361.835
324.4000	-52445	361.548
324.3000	-76179.3	361.267
324.2000	-73631.8	361.127
324.1000	-54471.1	360.864
324.0000	-49781.5	360.569
323.9000	-85010.5	360.245
323.8000	-124113	359.936
323.7000	-123045	359.783
323.6000	-100389	359.546
323.5000	-103156	359.284
323.4000	-116982	359.03
323.3000	-114810	358.926
323.2000	-102114	358.89
323.1000	-97790.8	358.704
323.0000	-74656.4	358.5
322.9000	-82098.6	358.261
322.8000	-92499.8	358.132
322.7000	-88470.2	357.89
322.6000	-81459.6	357.616
322.5000	-63584.1	357.317
322.4000	-61065.7	357.016
322.3000	-79217.3	356.812
322.2000	-72478.7	356.474
322.1000	-43578.6	356.146
322.0000	-35091.7	355.836
321.9000	-28552.5	355.647
321.8000	-30292.8	355.407
321.7000	-30755.6	355.17
321.6000	-48670.5	354.93
321.5000	-29770.2	354.697
321.4000	-8323.42	354.61
321.3000	-13540.1	354.489
321.2000	-9381.36	354.359
321.1000	-29292.8	354.19
321.0000	-66284.9	354.115
320.9000	-88556.4	353.972
320.8000	-122334	353.824
320.7000	-134872	353.665
320.6000	-145317	353.501
320.5000	-151553	353.412
320.4000	-160531	353.219
320.3000	-151714	353.043
320.2000	-114764	352.854
320.1000	-68756.9	352.745
320.0000	-41322.3	352.588
319.9000	-4115.3	352.442
319.8000	14195	352.247
319.7000	9599.3	352.043
319.6000	1799.52	351.849
319.5000	-27231.6	351.702
319.4000	-55641.4	351.564
319.3000	-89158.4	351.373
319.2000	-118746	351.243
319.1000	-133554	351.052
319.0000	-158343	350.887
318.9000	-153446	350.687
318.8000	-143691	350.547
318.7000	-129068	350.322
318.6000	-80996.7	350.091
318.5000	-38758.3	349.873
318.4000	-19863.1	349.668
318.3000	-23326.4	349.472
318.2000	-30013.8	349.309
318.1000	-26975	349.181
318.0000	-17560.8	349.011
317.9000	-17424.3	348.919
317.8000	-34340.9	348.804
317.7000	-65489.7	348.704
317.6000	-101193	348.537
317.5000	-107556	348.409
317.4000	-120088	348.238
317.3000	-120108	348.06
317.2000	-128476	347.857
317.1000	-118909	347.667
317.0000	-99031.6	347.439
316.9000	-93924.7	347.226
316.8000	-75827	347.028
316.7000	-53747.1	346.851
316.6000	-22317	346.685
316.5000	-22923.5	346.533
316.4000	-23408	346.362
316.3000	-40834	346.21
316.2000	-55905.4	346.082
316.1000	-68045.8	345.988
316.0000	-89583.6	345.922
315.9000	-93398.5	345.789
315.8000	-118689	345.669
315.7000	-132816	345.51
315.6000	-144520	345.395
315.5000	-153772	345.228
315.4000	-151289	345.084
315.3000	-136660	344.873
315.2000	-125659	344.65
315.1000	-133520	344.443
315.0000	-96950.3	344.267
314.9000	-57425.4	344.103
314.8000	-42536.2	343.955
314.7000	-28582.5	343.798
314.6000	-38023.1	343.664
314.5000	-60470.1	343.542
314.4000	-48500.6	343.449
314.3000	-25491.1	343.31
314.2000	-30299.6	343.179
314.1000	-49181.6	343.027
314.0000	-55120.8	342.879
313.9000	-49367	342.701
313.8000	-61560.6	342.54
313.7000	-45026.1	342.328
313.6000	-34934	342.12
313.5000	-38953.1	341.927
313.4000	-63907.4	341.755
313.3000	-87450.4	341.602
313.2000	-106189	341.458
313.1000	-128140	341.301
313.0000	-138227	341.169
312.9000	-143719	341.056
312.8000	-152128	340.97
312.7000	-136138	340.839
312.6000	-136608	340.712
312.5000	-123026	340.557
312.4000	-101011	340.398
312.3000	-81696.6	340.212
312.2000	-74999.5	340.04
312.1000	-70680.7	339.819
312.0000	-72336.6	339.601
311.9000	-89626.8	339.395
311.8000	-78001.1	339.206
311.7000	-87005.4	339.047
311.6000	-115082	338.84
311.5000	-99494.9	338.692
311.4000	-85587.1	338.544
311.3000	-63490	338.45
311.2000	-31253.8	338.328
311.1000	-12790.4	338.24
311.0000	-9861.5	338.148
310.9000	3020.48	338.061
310.8000	51281.2	337.956
310.7000	42472.6	337.869
310.6000	38565.1	337.752
310.5000	52485.4	337.646
310.4000	32943.2	337.54
310.3000	15185.5	337.454
310.2000	10088.3	337.376
310.1000	8297.47	337.3
310.0000	-12378.9	337.214
309.9000	-7312.01	337.149
309.8000	-14792.4	337.097
309.7000	-40481.8	336.99
309.6000	-51133	336.908
309.5000	-51537.6	336.814
309.4000	-52838.6	336.724
309.3000	-43316.9	336.566
309.2000	-16808.1	336.448
309.1000	-28129.6	336.301
309.0000	-40046.9	336.163
308.9000	-40765.4	336.032
308.8000	-39082.1	335.926
308.7000	-32073.7	335.828
308.6000	-24791.7	335.739
308.5000	-33821.1	335.631
308.4000	-63708.8	335.539
308.3000	-58556.9	335.48
308.2000	-44943.5	335.358
308.1000	-35589.1	335.272
308.0000	-32393.4	335.185
307.9000	-22257.7	335.108
307.8000	-26745.1	334.952
307.7000	-51229.9	334.841
307.6000	-68359.4	334.729
307.5000	-67303.5	334.559
307.4000	-67632.3	334.441
307.3000	-84553.3	334.348
307.2000	-82603.7	334.265
307.1000	-106671	334.112
307.0000	-135226	334.011
306.9000	-127088	333.941
306.8000	-95976.5	333.894
306.7000	-83305.1	333.819
306.6000	-93271.4	333.747
306.5000	-95781.2	333.677
306.4000	-75359.1	333.541
306.3000	-45449.8	333.453
306.2000	-4782.36	333.356
306.1000	-10555.5	333.256
306.0000	-23519.6	333.104
305.9000	-45649	333.003
305.8000	-58887.5	332.93
305.7000	-46821.6	332.8
305.6000	-57779.2	332.715
305.5000	-95555.1	332.651
305.4000	-133489	332.61
305.3000	-129763	332.51
305.2000	-106822	332.445
305.1000	-84406.3	332.385
305.0000	-60143	332.264
304.9000	-61724.6	332.188
304.8000	-65792.6	332.106
304.7000	-29731.2	332.024
304.6000	-3559.37	331.895
304.5000	62.0524	331.806
304.4000	-12636.3	331.741
304.3000	-28926.8	331.62
304.2000	-49466.2	331.547
304.1000	-49376.7	331.497
304.0000	-44073.5	331.464
303.9000	-49214.9	331.373
303.8000	-67782.6	331.302
303.7000	-80197.7	331.257
303.6000	-83288.3	331.152
303.5000	-90727.7	331.086
303.4000	-84169.8	331.018
303.3000	-75209.3	330.909
303.2000	-90078.7	330.799
303.1000	-117357	330.722
303.0000	-148932	330.673
302.9000	-155545	330.571
302.8000	-176770	330.5
302.7000	-184569	330.454
302.6000	-190550	330.365
302.5000	-210396	330.312
302.4000	-200960	330.266
302.3000	-171433	330.176
302.2000	-150723	330.086
302.1000	-142033	330.007
302.0000	-154700	329.952
301.9000	-125762	329.864
301.8000	-110236	329.799
301.7000	-112849	329.748
301.6000	-111907	329.658
301.5000	-112968	329.608
301.4000	-107082	329.569
301.3000	-88112.1	329.5
301.2000	-74428.1	329.438
301.1000	-59335.8	329.384
301.0000	-64161.7	329.358
300.9000	-47757.7	329.292
300.8000	-39572.1	329.228
300.7000	-28708.4	329.174
300.6000	-28099.3	329.097
300.5000	-27888.2	329.034
300.4000	-21806.8	328.991
300.3000	-34610	328.913
300.2000	-31016.3	328.837
300.1000	-31156.7	328.78
300.0000	-41116.1	328.718
299.9000	-66038.3	328.666
299.8000	-91171.8	328.618
299.7000	-113170	328.554
299.6000	-122955	328.497
299.5000	-112121	328.443
299.4000	-111983	328.404
299.3000	-113347	328.338
299.2000	-113493	328.287
299.1000	-94172.7	328.251
299.0000	-75566.9	328.187
298.9000	-68094.4	328.14
298.8000	-70601.7	328.106
298.7000	-67044.6	328.05
298.6000	-64995.8	328.001
298.5000	-76886	327.957
298.4000	-89832.1	327.899
298.3000	-80951.2	327.849
298.2000	-76214.3	327.8
298.1000	-61781.1	327.747
298.0000	-42355.6	327.698
297.9000	-33432.3	327.658
297.8000	-36062.4	327.596
297.7000	-56120.6	327.543
297.6000	-61034.4	327.509
297.5000	-66619.9	327.45
297.4000	-87752.8	327.406
297.3000	-101901	327.373
297.2000	-113416	327.313
297.1000	-130286	327.266
297.0000	-146287	327.223
296.9000	-146978	327.164
296.8000	-130402	327.116
296.7000	-118792	327.077
296.6000	-117827	327.05
296.5000	-122691	327.005
296.4000	-119427	326.975
296.3000	-112032	326.957
296.2000	-120014	326.919
296.1000	-107459	326.892
296.0000	-90877	326.877
295.9000	-86347.5	326.842
295.8000	-95428	326.786
295.7000	-95853.7	326.751
295.6000	-95089.2	326.715
295.5000	-98138.9	326.657
295.4000	-92428.3	326.596
295.3000	-80682.4	326.562
295.2000	-73375.7	326.511
295.1000	-76079.8	326.454
295.0000	-78595.2	326.426
294.9000	-68306	326.383
294.8000	-83545.2	326.324
294.7000	-110134	326.29
294.6000	-108231	326.264
294.5000	-113296	326.222
294.4000	-126774	326.191
294.3000	-132541	326.166
294.2000	-117661	326.121
294.1000	-103723	326.09
294.0000	-92901.1	326.071
293.9000	-84895.6	326.029
293.8000	-78213.2	326.001
293.7000	-66960.4	325.983
293.6000	-62855.5	325.94
293.5000	-82050.1	325.889
293.4000	-104319	325.867
293.3000	-116696	325.832
293.2000	-116372	325.788
293.1000	-90516.2	325.777
293.0000	-71390	325.742
292.9000	-79879.3	325.7
292.8000	-116853	325.682
292.7000	-119093	325.662
292.6000	-109595	325.633
292.5000	-85191.3	325.585
292.4000	-99170.9	325.559
292.3000	-112410	325.517
292.2000	-141235	325.473
292.1000	-161144	325.451
292.0000	-157063	325.417
291.9000	-162259	325.373
291.8000	-159361	325.334
291.7000	-157603	325.325
291.6000	-147061	325.293
291.5000	-137752	325.255
291.4000	-140205	325.237
291.3000	-120537	325.194
291.2000	-105949	325.135
291.1000	-68517.6	325.077
291.0000	-51320.1	325.032
290.9000	-63906.9	324.96
290.8000	-68434.6	324.87
290.7000	-83616.1	324.777
290.6000	-63874.3	324.677
290.5000	-49954.5	324.555
290.4000	-44691.2	324.429
290.3000	-68043	324.32
290.2000	-87200.4	324.189
290.1000	-116778	324.055
290.0000	-122815	323.939
289.9000	-118116	323.863
289.8000	-110749	323.798
289.7000	-112850	323.756
289.6000	-109133	323.758
289.5000	-107510	323.796
289.4000	-96044.2	323.851
289.3000	-67777.5	323.938
289.2000	-53530.4	324.038
289.1000	-44521.3	324.154
289.0000	-47338.1	324.259
288.9000	-55950.2	324.359
288.8000	-64841.2	324.449
288.7000	-51319.1	324.527
288.6000	-49196.4	324.581
288.5000	-42221.6	324.628
288.4000	-39076	324.652
288.3000	-40883.6	324.667
288.2000	-66795.6	324.67
288.1000	-90104.4	324.663
288.0000	-103842	324.649
287.9000	-105356	324.615
287.8000	-101398	324.599
287.7000	-95131.2	324.579
287.6000	-107504	324.556
287.5000	-116594	324.53
287.4000	-107107	324.518
287.3000	-84046.2	324.499
287.2000	-94625.3	324.484
287.1000	-97325.4	324.467
287.0000	-93645.5	324.436
286.9000	-100992	324.42
286.8000	-96530.9	324.41
286.7000	-101381	324.401
286.6000	-102586	324.369
286.5000	-100769	324.358
286.4000	-77779.4	324.358
286.3000	-61344.4	324.356
286.2000	-62301.1	324.36
286.1000	-69318.1	324.345
286.0000	-67215.5	324.341
285.9000	-76557.9	324.337
285.8000	-76004.8	324.333
285.7000	-83121.5	324.321
285.6000	-92679.3	324.297
285.5000	-103421	324.295
285.4000	-108264	324.301
285.3000	-112592	324.303
285.2000	-132546	324.294
285.1000	-133050	324.277
285.0000	-120982	324.284
284.9000	-106145	324.288
284.8000	-100277	324.291
284.7000	-109692	324.284
284.6000	-117356	324.264
284.5000	-128050	324.266
284.4000	-112143	324.278
284.3000	-108552	324.29
284.2000	-97904.5	324.291
284.1000	-116610	324.278
284.0000	-109015	324.268
283.9000	-88327.3	324.277
283.8000	-69668.8	324.291
283.7000	-58132.2	324.295
283.6000	-68474.8	324.282
283.5000	-50597.9	324.279
283.4000	-50125.9	324.27
283.3000	-47508	324.283
283.2000	-36435.2	324.307
283.1000	-40297.7	324.31
283.0000	-35007.2	324.306
282.9000	-14134	324.303
282.8000	6941.73	324.309
282.7000	11514.5	324.329
282.6000	6378.17	324.349
282.5000	27142.8	324.365
282.4000	35885.1	324.366
282.3000	48582.2	324.372
282.2000	55746.5	324.376
282.1000	40568.5	324.397
282.0000	11751.6	324.414
281.9000	-4442.85	324.418
281.8000	-23774.5	324.418
281.7000	-58339.4	324.411
281.6000	-82882.7	324.412
281.5000	-86327.9	324.412
281.4000	-98193.9	324.431
281.3000	-97692.1	324.443
281.2000	-75109.1	324.442
281.1000	-59859.2	324.438
281.0000	-63963.1	324.433
280.9000	-41260	324.433
280.8000	-20747.4	324.43
280.7000	-15122	324.428
280.6000	-30177.1	324.432
280.5000	-32959.2	324.426
280.4000	-34274.5	324.422
280.3000	-46395.1	324.417
280.2000	-19057.7	324.412
280.1000	-6803.89	324.408
280.0000	-4493.97	324.401
279.9000	-6493.38	324.392
279.8000	11847.9	324.374
279.7000	38298.3	324.368
279.6000	31855.8	324.362
279.5000	29058.1	324.362
279.4000	-2089.95	324.359
279.3000	-35303.5	324.353
279.2000	-36868.3	324.355
279.1000	-31858.8	324.356
279.0000	-21367.1	324.36
278.9000	-7163.49	324.351
278.8000	3595.48	324.363
278.7000	18271.4	324.374
278.6000	35784.4	324.389
278.5000	53207.1	324.409
278.4000	68140.9	324.426
278.3000	58521.5	324.445
278.2000	31371.8	324.463
278.1000	-2814.48	324.48
278.0000	-32225	324.485
277.9000	-67402.4	324.479
277.8000	-85075.9	324.474
277.7000	-75314.8	324.472
277.6000	-53743	324.491
277.5000	-39721.9	324.507
277.4000	-37770.3	324.52
277.3000	-36351.8	324.535
277.2000	-37522.1	324.545
277.1000	-27111.6	324.556
277.0000	-37916.6	324.569
276.9000	-44730.4	324.584
276.8000	-51790.1	324.578
276.7000	-64587.1	324.568
276.6000	-77875	324.563
276.5000	-86408.7	324.56
276.4000	-93744.9	324.557
276.3000	-77793.1	324.555
276.2000	-54084.5	324.559
276.1000	-30855.8	324.567
276.0000	-28243.3	324.592
275.9000	-29583.2	324.615
275.8000	-4358.16	324.638
275.7000	22682.2	324.659
275.6000	44414.5	324.684
275.5000	52552.8	324.709
275.4000	52145.6	324.734
275.3000	52776.6	324.753
275.2000	36984.5	324.758
275.1000	22372.9	324.762
275.0000	-5653.89	324.77
274.9000	-25934.9	324.777
274.8000	-46756.2	324.783
274.7000	-56103.3	324.79
274.6000	-69945	324.8
274.5000	-67869.6	324.81
274.4000	-61143.5	324.821
274.3000	-60389.2	324.831
274.2000	-50049.1	324.844
274.1000	-55720.8	324.858
274.0000	-50069.4	324.874
273.9000	-83976.2	324.884
273.8000	-104055	324.896
273.7000	-121705	324.904
273.6000	-129794	324.921
273.5000	-146197	324.939
273.4000	-159859	324.958
273.3000	-148391	324.978
273.2000	-148972	324.994
273.1000	-136695	325.016
273.0000	-121983	325.042
272.9000	-122010	325.066
272.8000	-111659	325.09
272.7000	-88127.4	325.114
272.6000	-66847	325.135
272.5000	-60536.4	325.157
272.4000	-43076.3	325.18
272.3000	-30446.6	325.204
272.2000	-22560.9	325.223
272.1000	-10251.1	325.244
272.0000	-17920.2	325.262
271.9000	-8804.83	325.28
271.8000	-22485.9	325.288
271.7000	-21691.1	325.302
271.6000	-36303.7	325.317
271.5000	-44500	325.334
271.4000	-32438.7	325.348
271.3000	-33750.2	325.358
271.2000	-43449.9	325.364
271.1000	-57389.8	325.371
271.0000	-57461.3	325.382
270.9000	-71595.8	325.378
270.8000	-77805.3	325.369
270.7000	-86161.3	325.358
270.6000	-101691	325.347
270.5000	-104580	325.339
270.4000	-100289	325.336
270.3000	-86753.8	325.334
270.2000	-90989.9	325.333
270.1000	-87807.5	325.341
270.0000	-75967.7	325.352
269.9000	-54774.7	325.369
269.8000	-40972.6	325.385
269.7000	-35230	325.398
269.6000	-37238.3	325.412
269.5000	-42323.3	325.427
269.4000	-31856.8	325.428
269.3000	-20373.8	325.429
269.2000	-39903.5	325.434
269.1000	-60043.6	325.443
269.0000	-47003.9	325.452
268.9000	-42980.2	325.469
268.8000	-20589.4	325.484
268.7000	-10540.5	325.502
268.6000	-7131.7	325.535
268.5000	-9445.44	325.582
268.4000	-6560.26	325.63
268.3000	10378.8	325.663
268.2000	10834	325.699
268.1000	-3254.95	325.734
268.0000	-11447.4	325.773
267.9000	-20030.2	325.81
267.8000	-34151.5	325.847
267.7000	-48610.2	325.889
267.6000	-72890.5	325.93
267.5000	-85943.1	325.979
267.4000	-101506	326.017
267.3000	-97604.9	326.058
267.2000	-85113.8	326.098
267.1000	-95882.7	326.144
267.0000	-88221.2	326.202
266.9000	-74007.7	326.258
266.8000	-66860.5	326.31
266.7000	-48221.3	326.349
266.6000	-39073.7	326.398
266.5000	-31317.6	326.456
266.4000	-41751.4	326.51
266.3000	-25709	326.572
266.2000	-28614	326.625
266.1000	-20801.8	326.672
266.0000	3493.25	326.693
265.9000	10940.6	326.728
265.8000	23445.4	326.779
265.7000	10048.4	326.825
265.6000	11204.8	326.875
265.5000	-3363.55	326.919
265.4000	3617.1	326.954
265.3000	22339.6	326.99
265.2000	11273.7	327.046
265.1000	-7725.27	327.115
265.0000	-17035.2	327.173
264.9000	-1165.77	327.236
264.8000	-9191.39	327.278
264.7000	-11680.6	327.328
264.6000	-24817.1	327.39
264.5000	-57519.3	327.454
264.4000	-84102.1	327.521
264.3000	-83651.5	327.574
264.2000	-82377.9	327.629
264.1000	-96260.6	327.692
264.0000	-95528.7	327.768
263.9000	-103094	327.851
263.8000	-94797.5	327.921
263.7000	-85361	327.988
263.6000	-82443	328.053
263.5000	-77070.1	328.121
263.4000	-65680.7	328.201
263.3000	-63528.7	328.264
263.2000	-59579	328.331
263.1000	-40975.7	328.395
263.0000	-5734.25	328.456
262.9000	7376.35	328.508
262.8000	13806.7	328.564
262.7000	40369.7	328.628
262.6000	37791.7	328.694
262.5000	37696.6	328.765
262.4000	35406.2	328.823
262.3000	24878.2	328.883
262.2000	11525.5	328.948
262.1000	-2596.28	329.034
262.0000	-1206.21	329.106
261.9000	-3870.14	329.172
261.8000	-32169.6	329.233
261.7000	-45625.6	329.286
261.6000	-37736.8	329.35
261.5000	-30491.9	329.423
261.4000	-39473.7	329.503
261.3000	-43134.3	329.571
261.2000	-50369.8	329.648
261.1000	-63837.9	329.733
261.0000	-47498.3	329.83
260.9000	-27477.5	329.924
260.8000	-23612.5	330.014
260.7000	-14008.6	330.098
260.6000	-8423.11	330.172
260.5000	1432.29	330.249
260.4000	-2928.42	330.328
260.3000	-13716.6	330.403
260.2000	-7092.03	330.46
260.1000	2131.4	330.524
260.0000	-7804.62	330.601
259.9000	-16509.2	330.666
259.8000	-16616.8	330.735
259.7000	2310.69	330.802
259.6000	3621.93	330.858
259.5000	236.766	330.922
259.4000	-8425.65	331.001
259.3000	-21653.7	331.067
259.2000	-27466.3	331.131
259.1000	-24717.2	331.209
259.0000	-28142.8	331.283
258.9000	-53845.7	331.361
258.8000	-58373.3	331.443
258.7000	-25359.6	331.522
258.6000	-7390.85	331.603
258.5000	-10174.8	331.691
258.4000	-15053	331.774
258.3000	-7605.49	331.854
258.2000	7778.17	331.936
258.1000	19642.1	332.01
258.0000	29421.7	332.106
257.9000	20473	332.214
257.8000	29313.4	332.305
257.7000	32913	332.392
257.6000	25414.5	332.489
257.5000	20771.5	332.586
257.4000	12434.4	332.694
257.3000	-3684.49	332.797
257.2000	-8013.41	332.892
257.1000	-2087.4	332.98
257.0000	-25986.5	333.07
256.9000	-36368.3	333.165
256.8000	-35551.4	333.238
256.7000	-9101.87	333.311
256.6000	-2282.46	333.38
256.5000	-9006.75	333.451
256.4000	-10346.5	333.526
256.3000	-18870.3	333.581
256.2000	-3277.08	333.636
256.1000	32934.6	333.702
256.0000	52097.3	333.781
255.9000	35226.4	333.864
255.8000	19044.5	333.926
255.7000	30970	334
255.6000	49012	334.078
255.5000	63465.9	334.152
255.4000	63791.1	334.236
255.3000	24943.3	334.313
255.2000	8792.88	334.391
255.1000	11416.1	334.459
255.0000	34155.5	334.544
254.9000	40873.2	334.617
254.8000	26163.5	334.688
254.7000	8358.26	334.769
254.6000	-4183.96	334.85
254.5000	-10260.3	334.935
254.4000	-26339.5	335.008
254.3000	-25968.2	335.087
254.2000	-42283.6	335.16
254.1000	-43137.9	335.238
254.0000	-57359.6	335.312
253.9000	-72158.3	335.395
253.8000	-102447	335.472
253.7000	-95031.5	335.549
253.6000	-67026.5	335.619
253.5000	-49341.8	335.694
253.4000	-35632.3	335.768
253.3000	-36752.6	335.849
253.2000	-50559.2	335.924
253.1000	-43985	335.997
253.0000	-19999.7	336.074
252.9000	-13063.8	336.158
252.8000	-14123.3	336.236
252.7000	-11817.4	336.32
252.6000	-13475.8	336.409
252.5000	-42316.4	336.5
252.4000	-45426.9	336.58
252.3000	-45166.3	336.665
252.2000	-45023.6	336.742
252.1000	-40473.7	336.82
252.0000	-39010.1	336.901
251.9000	-49128.7	336.977
251.8000	-56288.1	337.054
251.7000	-45496.4	337.119
251.6000	-34537	337.2
251.5000	-30040	337.279
251.4000	-35448.5	337.366
251.3000	-37963.1	337.447
251.2000	-40371.2	337.52
251.1000	-44657.6	337.604
251.0000	-69381.7	337.691
250.9000	-91177.4	337.796
250.8000	-89564.3	337.897
250.7000	-84816.2	338.001
250.6000	-88553.1	338.093
250.5000	-70267.2	338.183
250.4000	-79783.9	338.282
250.3000	-99040.5	338.372
250.2000	-100438	338.462
250.1000	-91674.3	338.534
250.0000	-98738.9	338.591
249.9000	-118897	338.653
249.8000	-95089	338.724
249.7000	-90174.4	338.807
249.6000	-66697.4	338.892
249.5000	-56030	338.975
249.4000	-34793.6	339.065
249.3000	-11747.2	339.156
249.2000	-5389.4	339.254
249.1000	-3365.07	339.362
249.0000	-6866.71	339.465
248.9000	-30938.7	339.563
248.8000	-40250.9	339.666
248.7000	-23576.4	339.768
248.6000	-19415.3	339.862
248.5000	-25027	339.956
248.4000	-35691.1	340.05
248.3000	-41192.4	340.137
248.2000	-44522.6	340.226
248.1000	-59337.6	340.31
248.0000	-70264.7	340.38
247.9000	-94726.3	340.455
247.8000	-95084.6	340.532
247.7000	-124641	340.609
247.6000	-137539	340.693
247.5000	-98957.8	340.783
247.4000	-55652.9	340.872
247.3000	-17527.8	340.956
247.2000	-1772.31	341.044
247.1000	-13243.6	341.117
247.0000	-51254.5	341.185
246.9000	-35156.8	341.265
246.8000	-7932.79	341.334
246.7000	-4772.95	341.394
246.6000	-39004.3	341.453
246.5000	-68999.2	341.523
246.4000	-91146.9	341.591
246.3000	-96783.4	341.664
246.2000	-75596.9	341.746
246.1000	-73350.8	341.84
246.0000	-99480.4	341.936
245.9000	-139148	342.041
245.8000	-173062	342.152
245.7000	-193231	342.266
245.6000	-182112	342.384
245.5000	-177122	342.506
245.4000	-183734	342.628
245.3000	-183071	342.74
245.2000	-161155	342.856
245.1000	-140570	342.972
245.0000	-129811	343.078
244.9000	-116556	343.174
244.8000	-141631	343.268
244.7000	-142325	343.373
244.6000	-128439	343.48
244.5000	-121428	343.587
244.4000	-141042	343.688
244.3000	-149261	343.792
244.2000	-143243	343.903
244.1000	-145804	344.028
244.0000	-144440	344.146
243.9000	-145699	344.258
243.8000	-153608	344.365
243.7000	-152154	344.473
243.6000	-160317	344.584
243.5000	-143338	344.699
243.4000	-133298	344.822
243.3000	-135461	344.938
243.2000	-131892	345.055
243.1000	-111346	345.178
243.0000	-68000.5	345.304
242.9000	-44725.5	345.435
242.8000	-26538.8	345.571
242.7000	-10927.8	345.705
242.6000	-18726.6	345.824
242.5000	-15431.2	345.94
242.4000	-1986.69	346.066
242.3000	14461.5	346.193
242.2000	-16698.7	346.321
242.1000	-49258.7	346.452
242.0000	-53881.6	346.586
241.9000	-67448.7	346.714
241.8000	-75141.9	346.844
241.7000	-79688.8	346.976
241.6000	-85020.4	347.104
241.5000	-95557.9	347.234
241.4000	-96307.9	347.367
241.3000	-106288	347.5
241.2000	-132985	347.63
241.1000	-156673	347.767
241.0000	-184159	347.916
240.9000	-208238	348.073
240.8000	-231317	348.227
240.7000	-253166	348.382
240.6000	-279528	348.541
240.5000	-286094	348.698
240.4000	-250960	348.855
240.3000	-237407	349.005
240.2000	-215674	349.152
240.1000	-169670	349.299
240.0000	-146428	349.449
239.9000	-121752	349.606
239.8000	-134552	349.765
239.7000	-128257	349.929
239.6000	-150230	350.095
239.5000	-189170	350.267
239.4000	-171707	350.442
239.3000	-192029	350.617
239.2000	-175393	350.796
239.1000	-144378	350.98
239.0000	-101545	351.164
238.9000	-68314.4	351.349
238.8000	-53367.6	351.533
238.7000	-38506.8	351.721
238.6000	-63139.6	351.901
238.5000	-57798.8	352.082
238.4000	-51713.8	352.268
238.3000	-76163.5	352.453
238.2000	-116973	352.642
238.1000	-124800	352.834
238.0000	-140928	353.027
237.9000	-134791	353.222
237.8000	-124487	353.416
237.7000	-128678	353.616
237.6000	-152836	353.819
237.5000	-198364	354.022
237.4000	-216173	354.222
237.3000	-242972	354.416
237.2000	-266288	354.615
237.1000	-279391	354.811
237.0000	-282757	355.015
236.9000	-294200	355.22
236.8000	-279265	355.427
236.7000	-259318	355.637
236.6000	-224382	355.842
236.5000	-203962	356.048
236.4000	-165676	356.255
236.3000	-163252	356.462
236.2000	-190360	356.669
236.1000	-217159	356.874
236.0000	-235681	357.085
235.9000	-253076	357.295
235.8000	-263170	357.512
235.7000	-293295	357.728
235.6000	-295773	357.946
235.5000	-311740	358.162
235.4000	-315882	358.382
235.3000	-312132	358.6
235.2000	-295060	358.82
235.1000	-297687	359.039
235.0000	-311342	359.258
234.9000	-296651	359.48
234.8000	-294629	359.705
234.7000	-292415	359.935
234.6000	-252860	360.163
234.5000	-232036	360.401
234.4000	-219800	360.641
234.3000	-218292	360.878
234.2000	-197189	361.116
234.1000	-202660	361.353
234.0000	-209550	361.583
233.9000	-234233	361.816
233.8000	-276136	362.056
233.7000	-295302	362.296
233.6000	-300282	362.537
233.5000	-311598	362.782
233.4000	-306349	363.022
233.3000	-313423	363.27
233.2000	-334468	363.532
233.1000	-326936	363.79
233.0000	-293385	364.046
232.9000	-255158	364.298
232.8000	-249636	364.554
232.7000	-256461	364.813
232.6000	-267091	365.066
232.5000	-258300	365.325
232.4000	-272101	365.571
232.3000	-262321	365.825
232.2000	-259656	366.078
232.1000	-307585	366.333
232.0000	-339711	366.588
231.9000	-357368	366.839
231.8000	-355582	367.091
231.7000	-376166	367.348
231.6000	-368827	367.606
231.5000	-404942	367.853
231.4000	-436244	368.105
231.3000	-429349	368.355
231.2000	-393368	368.615
231.1000	-387410	368.865
231.0000	-396943	369.115
230.9000	-420069	369.37
230.8000	-462828	369.618
230.7000	-472926	369.873
230.6000	-464323	370.133
230.5000	-466344	370.4
230.4000	-492400	370.665
230.3000	-519698	370.935
230.2000	-531410	371.202
230.1000	-514910	371.474
230.0000	-499855	371.743
229.9000	-480079	372.006
229.8000	-472793	372.267
229.7000	-493970	372.519
229.6000	-522942	372.764
229.5000	-537848	373.003
229.4000	-515990	373.238
229.3000	-525654	373.469
229.2000	-543995	373.69
229.1000	-501431	373.916
229.0000	-476534	374.152
228.9000	-458970	374.393
228.8000	-435241	374.635
228.7000	-440410	374.889
228.6000	-447598	375.154
228.5000	-480567	375.423
228.4000	-453144	375.707
228.3000	-473138	376
228.2000	-517195	376.285
228.1000	-549141	376.57
228.0000	-582634	376.855
227.9000	-584884	377.138
227.8000	-585365	377.413
227.7000	-585686	377.697
227.6000	-584874	377.978
227.5000	-603474	378.249
227.4000	-634576	378.52
227.3000	-629383	378.797
227.2000	-618530	379.072
227.1000	-591610	379.345
227.0000	-598181	379.614
226.9000	-572973	379.881
226.8000	-570939	380.146
226.7000	-574070	380.411
226.6000	-579559	380.676
226.5000	-593878	380.93
226.4000	-579158	381.182
226.3000	-608755	381.428
226.2000	-618645	381.683
226.1000	-612336	381.936
226.0000	-599998	382.185
225.9000	-597704	382.433
225.8000	-601207	382.681
225.7000	-588691	382.937
225.6000	-599525	383.194
225.5000	-627315	383.449
225.4000	-648112	383.699
225.3000	-654116	383.956
225.2000	-687431	384.212
225.1000	-733265	384.467
225.0000	-750389	384.719
224.9000	-708826	384.972
224.8000	-687939	385.217
224.7000	-653279	385.467
224.6000	-618175	385.719
224.5000	-557052	385.968
224.4000	-550396	386.206
224.3000	-536961	386.444
224.2000	-511005	386.687
224.1000	-506531	386.932
224.0000	-506316	387.178
223.9000	-522373	387.424
223.8000	-496246	387.672
223.7000	-539028	387.92
223.6000	-570568	388.174
223.5000	-561140	388.436
223.4000	-556863	388.691
223.3000	-589784	388.93
223.2000	-623433	389.167
223.1000	-630499	389.407
223.0000	-644745	389.65
222.9000	-659792	389.891
222.8000	-663347	390.129
222.7000	-658349	390.366
222.6000	-658555	390.602
222.5000	-670006	390.846
222.4000	-704817	391.087
222.3000	-709414	391.329
222.2000	-707941	391.571
222.1000	-720186	391.809
222.0000	-715058	392.047
221.9000	-700511	392.276
221.8000	-691931	392.511
221.7000	-682557	392.749
221.6000	-584427	392.995
221.5000	-562919	393.235
221.4000	-585960	393.461
221.3000	-590603	393.692
221.2000	-582931	393.926
221.1000	-559383	394.165
221.0000	-563760	394.395
220.9000	-541967	394.625
220.8000	-523069	394.858
220.7000	-518796	395.085
220.6000	-502450	395.322
220.5000	-499473	395.561
220.4000	-485917	395.789
220.3000	-482848	396.021
220.2000	-463464	396.256
220.1000	-485628	396.484
220.0000	-510954	396.714
219.9000	-570274	396.947
219.8000	-582415	397.183
219.7000	-587382	397.414
219.6000	-581099	397.647
219.5000	-555574	397.88
219.4000	-586717	398.114
219.3000	-628990	398.344
219.2000	-674237	398.574
219.1000	-659108	398.803
219.0000	-679926	399.034
218.9000	-687606	399.262
218.8000	-691857	399.494
218.7000	-687886	399.719
218.6000	-687495	399.945
218.5000	-680623	400.171
218.4000	-637714	400.404
218.3000	-623198	400.631
218.2000	-611982	400.855
218.1000	-589149	401.08
218.0000	-601855	401.306
217.9000	-643725	401.533
217.8000	-669347	401.756
217.7000	-647734	401.984
217.6000	-624946	402.207
217.5000	-647555	402.433
217.4000	-671605	402.656
217.3000	-699081	402.88
217.2000	-714852	403.105
217.1000	-702856	403.329
217.0000	-716713	403.551
216.9000	-752654	403.777
216.8000	-807990	404.003
216.7000	-825076	404.227
216.6000	-813146	404.456
216.5000	-752691	404.685
216.4000	-734614	404.91
216.3000	-741331	405.13
216.2000	-768911	405.354
216.1000	-775658	405.577
216.0000	-749428	405.799
215.9000	-729883	406.022
215.8000	-708116	406.238
215.7000	-750418	406.459
215.6000	-836448	406.679
215.5000	-849407	406.904
215.4000	-827584	407.131
215.3000	-787452	407.358
215.2000	-776192	407.585
215.1000	-792413	407.821
215.0000	-801096	408.062
214.9000	-804191	408.298
214.8000	-764669	408.536
214.7000	-723518	408.778
214.6000	-731674	409.021
214.5000	-698997	409.268
214.4000	-653141	409.514
214.3000	-639474	409.756
214.2000	-629143	409.992
214.1000	-614958	410.234
214.0000	-605212	410.473
213.9000	-612858	410.715
213.8000	-607108	410.958
213.7000	-630495	411.197
213.6000	-663534	411.441
213.5000	-659105	411.69
213.4000	-596045	411.943
213.3000	-590856	412.195
213.2000	-583393	412.45
213.1000	-585746	412.71
213.0000	-536286	412.973
212.9000	-507297	413.239
212.8000	-517134	413.496
212.7000	-497438	413.76
212.6000	-553504	414.02
212.5000	-554583	414.286
212.4000	-581890	414.551
212.3000	-591857	414.814
212.2000	-601272	415.078
212.1000	-611238	415.345
212.0000	-605020	415.622
211.9000	-600961	415.899
211.8000	-598931	416.175
211.7000	-602005	416.456
211.6000	-585851	416.742
211.5000	-581258	417.027
211.4000	-579480	417.315
211.3000	-582313	417.604
211.2000	-563561	417.889
211.1000	-617182	418.175
211.0000	-689187	418.465
210.9000	-700243	418.754
210.8000	-707042	419.044
210.7000	-677409	419.344
210.6000	-635936	419.642
210.5000	-641377	419.944
210.4000	-634222	420.245
210.3000	-587397	420.559
210.2000	-537302	420.868
210.1000	-511399	421.179
210.0000	-537185	421.485
209.9000	-571348	421.795
209.8000	-615217	422.099
209.7000	-649857	422.405
209.6000	-703509	422.717
209.5000	-763444	423.033
209.4000	-816448	423.341
209.3000	-830097	423.657
209.2000	-850521	423.981
209.1000	-809814	424.308
209.0000	-801445	424.632
208.9000	-777167	424.969
208.8000	-716667	425.3
208.7000	-614396	425.633
208.6000	-504803	425.981
208.5000	-452667	426.328
208.4000	-417825	426.674
208.3000	-419964	427.019
208.2000	-459616	427.366
208.1000	-501541	427.709
208.0000	-538907	428.056
207.9000	-586222	428.409
207.8000	-690909	428.754
207.7000	-737699	429.107
207.6000	-752105	429.46
207.5000	-731701	429.813
207.4000	-741557	430.163
207.3000	-702385	430.517
207.2000	-660984	430.872
207.1000	-654393	431.221
207.0000	-662263	431.573
206.9000	-693468	431.916
206.8000	-671344	432.265
206.7000	-659518	432.618
206.6000	-658720	432.975
206.5000	-671153	433.333
206.4000	-733972	433.688
206.3000	-755625	434.055
206.2000	-773774	434.413
206.1000	-762138	434.775
206.0000	-766952	435.139
205.9000	-760203	435.506
205.8000	-745627	435.872
205.7000	-765261	436.242
205.6000	-731205	436.615
205.5000	-680103	436.994
205.4000	-632347	437.371
205.3000	-626822	437.751
205.2000	-613867	438.132
205.1000	-638724	438.512
205.0000	-639853	438.896
204.9000	-587629	439.291
204.8000	-493608	439.688
204.7000	-446310	440.089
204.6000	-412599	440.491
204.5000	-360050	440.896
204.4000	-364034	441.297
204.3000	-321978	441.71
204.2000	-297826	442.124
204.1000	-359085	442.522
204.0000	-389090	442.929
203.9000	-415465	443.338
203.8000	-489904	443.747
203.7000	-541159	444.171
203.6000	-516463	444.607
203.5000	-476485	445.043
203.4000	-466611	445.477
203.3000	-413446	445.93
203.2000	-401874	446.389
203.1000	-393798	446.849
203.0000	-398964	447.312
202.9000	-353559	447.784
202.8000	-322171	448.253
202.7000	-288249	448.732
202.6000	-208466	449.212
202.5000	-169262	449.691
202.4000	-139957	450.173
202.3000	-107252	450.663
202.2000	-17288	451.159
202.1000	34719.6	451.647
202.0000	71338.4	452.141
201.9000	64586.1	452.644
201.8000	12517.8	453.155
201.7000	-10722.4	453.68
201.6000	-10367.6	454.215
201.5000	-11359.7	454.75
201.4000	-12983.7	455.299
201.3000	-534.312	455.858
201.2000	32973.7	456.431
201.1000	108522	457.008
201.0000	170725	457.591
200.9000	229643	458.177
200.8000	265753	458.766
200.7000	307996	459.365
200.6000	401017	459.983
200.5000	451334	460.606
200.4000	431511	461.24
200.3000	375315	461.883
200.2000	295038	462.536
200.1000	230118	463.197
200.0000	191848	463.872
199.9000	176653	464.559
199.8000	209862	465.253
199.7000	231295	465.945
199.6000	221461	466.641
199.5000	313508	467.355
199.4000	419025	468.083
199.3000	561713	468.825
199.2000	627512	469.576
199.1000	606254	470.336
199.0000	599892	471.118
198.9000	583980	471.926
198.8000	593820	472.758
198.7000	533892	473.608
198.6000	562362	474.482
198.5000	588807	475.383
198.4000	674525	476.31
198.3000	781784	477.259
198.2000	807313	478.236
198.1000	776268	479.237
198.0000	792895	480.274
197.9000	941451	481.353
197.8000	974164	482.458
197.7000	954914	483.603
197.6000	896768	484.764
197.5000	904191	485.958
197.4000	1.00212E+006	487.171
197.3000	1.07754E+006	488.384
197.2000	1.11121E+006	489.59
197.1000	1.10714E+006	490.786
197.0000	1.10284E+006	491.98
196.9000	1.13767E+006	493.169
196.8000	1.16438E+006	494.36
196.7000	1.18827E+006	495.572
196.6000	1.20695E+006	496.819
196.5000	1.32844E+006	498.118
196.4000	1.37903E+006	499.479
196.3000	1.42318E+006	500.907
196.2000	1.4398E+006	502.399
196.1000	1.41362E+006	503.969
196.0000	1.43128E+006	505.625
195.9000	1.45807E+006	507.38
195.8000	1.51231E+006	509.237
195.7000	1.46151E+006	511.204
195.6000	1.47169E+006	513.295
195.5000	1.58814E+006	515.535
195.4000	1.62066E+006	517.894
195.3000	1.73029E+006	520.363
195.2000	1.79849E+006	522.918
195.1000	1.76424E+006	525.537
195.0000	1.69235E+006	528.158
194.9000	1.62525E+006	530.734
194.8000	1.52018E+006	533.213
194.7000	1.30274E+006	535.554
194.6000	1.22402E+006	537.798
194.5000	1.19535E+006	539.959
194.4000	1.15154E+006	542.053
194.3000	1.13235E+006	544.101
194.2000	1.14514E+006	546.178
194.1000	1.09784E+006	548.347
194.0000	1.11161E+006	550.682
193.9000	1.10818E+006	553.231
193.8000	1.24127E+006	556.052
193.7000	1.30878E+006	559.156
193.6000	1.34992E+006	562.559
193.5000	1.40117E+006	566.323
193.4000	1.49632E+006	570.471
193.3000	1.73671E+006	575.021
193.2000	2.02574E+006	579.969
193.1000	2.14406E+006	585.258
193.0000	2.14795E+006	590.822
192.9000	2.06202E+006	596.599
192.8000	2.08045E+006	602.531
192.7000	2.07056E+006	608.441
192.6000	2.01312E+006	614.104
192.5000	1.86793E+006	619.37
192.4000	1.717E+006	624.186
192.3000	1.82345E+006	628.612
192.2000	2.01244E+006	632.644
192.1000	2.1066E+006	636.315
192.0000	2.15523E+006	639.71
191.9000	2.33732E+006	643.019
191.8000	2.53692E+006	646.526
191.7000	2.5081E+006	650.462
191.6000	2.62149E+006	655.01
191.5000	2.70473E+006	660.157
191.4000	2.55343E+006	665.907
191.3000	2.38853E+006	672.419
191.2000	2.24848E+006	679.719
191.1000	1.87761E+006	687.772
191.0000	1.78462E+006	696.586
190.9000	2.25803E+006	706.057
190.8000	2.2978E+006	715.917
190.7000	1.61571E+006	726.055
190.6000	1.00638E+006	736.442
190.5000	686911	746.837
190.4000	711269	756.929
190.3000	1.52473E+006	766.57
190.2000	2.28012E+006	775.508
190.1000	2.15635E+006	783.603
190.0000	1.62954E+006	790.937

##### Extended Information
[Comments]
Sample name	ACE2_D2_0.4uM
Comment
User
Division
Company	CSIR-IMTECH

[Detailed Information]
Creation date	2/26/2024 4:13 PM

Data array type	Linear data array * 2
Horizontal axis	Wavelength [nm]
Vertical axis(1)	Mol. Ellip.
Vertical axis(2)	HT [V]
Start	350 nm
End	190 nm
Data interval	0.1 nm
Data points	1601    

[Measurement Information]
Instrument Name	JASCO CD
Model Name	J-815
Serial No.	B063061168

Accessory	PTC-423S
Accessory S/N	C013945-01
  Temperature	36.31 C
  Control Sonsor	Cell
  Monitor Sensor	Cell
  Start Mode	Start immediately
  Cell Length	10 mm

Measurement date	2/26/2024 4:12 PM

Photometric Mode	CD, HT
Measure Range	350 - 190 nm
Data pitch	0.1 nm
Sensitivity	Standard
D.I.T.	1 sec
Bandwidth	1.00 nm
Start Mode	Immediately
Scanning Speed	50 nm/min
Baseline Correction	Baseline
Shutter Control	Manual
CD Detector	PMT
PMT Voltage	Auto
Accumulations	3
Concentration	0.4 umol/L

