TITLE	ACE2_0.27uM
DATA TYPE	
ORIGIN	JASCO
OWNER	
DATE	24/02/26
TIME	14:37:53
SPECTROMETER/DATA SYSTEM	
LOCALE	1033
RESOLUTION	
DELTAX	-0.1
XUNITS	NANOMETERS
YUNITS	Mol. Ellip.
Y2UNITS	HT [V]
FIRSTX	  350.0000
LASTX	  190.0000
NPOINTS	    1601
FIRSTY	4118720.25000
MAXY	73295352.00000
MINY	-15005143.00000
XYDATA
350.0000	4.11872E+006	471.226
349.9000	4.26642E+006	470.624
349.8000	4.91017E+006	469.773
349.7000	5.49663E+006	468.91
349.6000	5.20045E+006	468.293
349.5000	3.33602E+006	467.754
349.4000	3.27122E+006	466.889
349.3000	2.74131E+006	466.27
349.2000	2.58229E+006	465.742
349.1000	2.10077E+006	464.927
349.0000	919378	464.293
348.9000	-570976	463.72
348.8000	-2.05782E+006	462.835
348.7000	-1.12181E+006	461.95
348.6000	-845522	461.313
348.5000	-999827	460.77
348.4000	-553645	459.905
348.3000	-157497	459.25
348.2000	1.00655E+006	458.675
348.1000	1.83992E+006	457.81
348.0000	2.95579E+006	457.175
347.9000	3.30184E+006	456.614
347.8000	2.74464E+006	455.794
347.7000	2.80599E+006	454.964
347.6000	3.03181E+006	454.38
347.5000	3.58001E+006	453.894
347.4000	3.74388E+006	453.095
347.3000	3.99477E+006	452.493
347.2000	3.76098E+006	451.971
347.1000	3.86126E+006	451.239
347.0000	4.37291E+006	450.699
346.9000	3.91842E+006	450.227
346.8000	3.55733E+006	449.461
346.7000	2.41213E+006	448.675
346.6000	606452	448.1
346.5000	-252557	447.375
346.4000	-866579	446.646
346.3000	-2.23785E+006	446.062
346.2000	-3.47509E+006	445.276
346.1000	-3.65147E+006	444.484
346.0000	-3.35155E+006	443.914
345.9000	-3.22031E+006	443.436
345.8000	-2.33661E+006	442.676
345.7000	-2.26986E+006	442.107
345.6000	-2.50969E+006	441.607
345.5000	-2.03583E+006	440.888
345.4000	-694961	440.367
345.3000	-313826	439.921
345.2000	-847967	439.211
345.1000	-1.17165E+006	438.484
345.0000	-1.7493E+006	437.953
344.9000	-1.30248E+006	437.283
344.8000	-386104	436.602
344.7000	80242.4	436.072
344.6000	123683	435.4
344.5000	250764	434.716
344.4000	545982	434.21
344.3000	1.07132E+006	433.548
344.2000	1.56146E+006	432.876
344.1000	2.12916E+006	432.369
344.0000	2.02601E+006	431.721
343.9000	2.06728E+006	431.066
343.8000	1.96769E+006	430.577
343.7000	2.27702E+006	430.152
343.6000	2.38573E+006	429.51
343.5000	2.61464E+006	429.051
343.4000	2.85168E+006	428.663
343.3000	2.89281E+006	428.029
343.2000	2.60239E+006	427.56
343.1000	2.45112E+006	427.151
343.0000	2.4366E+006	426.554
342.9000	2.66251E+006	425.945
342.8000	2.57185E+006	425.486
342.7000	1.53774E+006	424.867
342.6000	193741	424.235
342.5000	-534890	423.78
342.4000	-269576	423.211
342.3000	295930	422.636
342.2000	242159	422.195
342.1000	-651535	421.624
342.0000	-1.13944E+006	421.053
341.9000	-625599	420.649
341.8000	495327	420.111
341.7000	1.01674E+006	419.56
341.6000	963195	419.147
341.5000	181165	418.593
341.4000	275800	418.03
341.3000	217703	417.598
341.2000	-78599.7	417.042
341.1000	-589223	416.47
341.0000	-1.43141E+006	416.048
340.9000	-1.45166E+006	415.496
340.8000	-1.40677E+006	414.935
340.7000	-1.32018E+006	414.516
340.6000	-1.69242E+006	414.006
340.5000	-1.8348E+006	413.493
340.4000	-1.57121E+006	413.11
340.3000	-586838	412.599
340.2000	398756	412.081
340.1000	1.06441E+006	411.707
340.0000	351340	411.227
339.9000	221836	410.74
339.8000	120469	410.367
339.7000	71520.4	409.872
339.6000	-186323	409.363
339.5000	-299570	408.99
339.4000	-98406	408.514
339.3000	-603231	408.016
339.2000	-252260	407.475
339.1000	671066	406.992
339.0000	642226	406.491
338.9000	1.17944E+006	405.962
338.8000	1.50215E+006	405.492
338.7000	1.10776E+006	405.017
338.6000	684969	404.489
338.5000	1.10537E+006	404.026
338.4000	1.40943E+006	403.684
338.3000	1.0697E+006	403.264
338.2000	1.2152E+006	402.845
338.1000	1.84139E+006	402.542
338.0000	2.0921E+006	402.127
337.9000	2.16391E+006	401.703
337.8000	2.17919E+006	401.404
337.7000	2.42908E+006	401.004
337.6000	2.64341E+006	400.595
337.5000	2.30259E+006	400.279
337.4000	2.16913E+006	399.863
337.3000	1.37902E+006	399.434
337.2000	952740	398.968
337.1000	612507	398.554
337.0000	92909.1	398.13
336.9000	-576654	397.679
336.8000	-1.27399E+006	397.282
336.7000	-995762	396.888
336.6000	-1.11017E+006	396.457
336.5000	-1.22542E+006	396.067
336.4000	-1.89474E+006	395.786
336.3000	-2.23569E+006	395.403
336.2000	-2.22299E+006	395.017
336.1000	-2.09888E+006	394.731
336.0000	-1.99482E+006	394.368
335.9000	-1.56651E+006	393.986
335.8000	-1.889E+006	393.548
335.7000	-1.60567E+006	393.157
335.6000	-350108	392.765
335.5000	15737.3	392.358
335.4000	470653	392.001
335.3000	1.40899E+006	391.646
335.2000	1.70752E+006	391.263
335.1000	1.47942E+006	390.923
335.0000	1.60643E+006	390.7
334.9000	1.8063E+006	390.387
334.8000	1.09824E+006	390.055
334.7000	757736	389.684
334.6000	573904	389.359
334.5000	39574.9	389.023
334.4000	-88425.6	388.646
334.3000	127496	388.298
334.2000	-228742	387.94
334.1000	-649889	387.54
334.0000	-542610	387.187
333.9000	-330517	386.931
333.8000	121844	386.607
333.7000	256585	386.272
333.6000	-307644	385.895
333.5000	-641649	385.564
333.4000	-711926	385.234
333.3000	-433802	384.902
333.2000	-376421	384.623
333.1000	-280521	384.34
333.0000	-5259.57	384.02
332.9000	348820	383.732
332.8000	872332	383.415
332.7000	1.33364E+006	383.142
332.6000	1.62574E+006	382.858
332.5000	1.71142E+006	382.526
332.4000	1.68872E+006	382.225
332.3000	2.16876E+006	381.915
332.2000	2.94977E+006	381.578
332.1000	2.76455E+006	381.271
332.0000	2.93487E+006	380.924
331.9000	2.82309E+006	380.62
331.8000	2.32038E+006	380.311
331.7000	2.14102E+006	379.992
331.6000	1.57265E+006	379.709
331.5000	1.28794E+006	379.309
331.4000	155734	378.986
331.3000	-599380	378.702
331.2000	-1.60143E+006	378.406
331.1000	-2.03424E+006	378.148
331.0000	-1.97527E+006	377.883
330.9000	-2.10678E+006	377.589
330.8000	-1.76751E+006	377.328
330.7000	-1.52121E+006	377.052
330.6000	-1.19304E+006	376.816
330.5000	-326851	376.579
330.4000	929765	376.29
330.3000	1.69872E+006	376.032
330.2000	1.57244E+006	375.696
330.1000	1.94721E+006	375.434
330.0000	2.75743E+006	375.209
329.9000	2.7818E+006	374.904
329.8000	2.15646E+006	374.622
329.7000	1.433E+006	374.265
329.6000	872494	374.002
329.5000	131097	373.777
329.4000	-47746.8	373.481
329.3000	-234386	373.204
329.2000	-472495	372.884
329.1000	-1.15298E+006	372.667
329.0000	-1.26346E+006	372.503
328.9000	-1.15404E+006	372.242
328.8000	-1.31484E+006	371.991
328.7000	-1.9034E+006	371.726
328.6000	-1.70906E+006	371.564
328.5000	-1.59302E+006	371.446
328.4000	-2.36336E+006	371.154
328.3000	-2.07507E+006	370.863
328.2000	-1.44848E+006	370.589
328.1000	-1.27836E+006	370.423
328.0000	-1.30386E+006	370.311
327.9000	-609455	370
327.8000	-123174	369.666
327.7000	54336.4	369.335
327.6000	642312	369.156
327.5000	1.15088E+006	369.052
327.4000	1.37443E+006	368.746
327.3000	1.91648E+006	368.413
327.2000	2.02308E+006	368.127
327.1000	2.03517E+006	368.001
327.0000	1.79511E+006	367.949
326.9000	1.94332E+006	367.695
326.8000	1.90968E+006	367.412
326.7000	1.77083E+006	367.148
326.6000	1.57336E+006	367.027
326.5000	577257	366.975
326.4000	285151	366.675
326.3000	25973.8	366.332
326.2000	-667321	366.013
326.1000	-812879	365.842
326.0000	-741645	365.53
325.9000	-580893	365.197
325.8000	-788141	364.847
325.7000	-136982	364.53
325.6000	282781	364.37
325.5000	513453	364.106
325.4000	881231	363.817
325.3000	915561	363.508
325.2000	673207	363.387
325.1000	371749	363.349
325.0000	210854	361.921
324.9000	-644.26	351.521
324.8000	-427657	337.814
324.7000	-522966	323.49
324.6000	-51333.6	309.059
324.5000	170186	294.464
324.4000	-57452.2	279.822
324.3000	-329055	265.151
324.2000	-890413	250.626
324.1000	-1.29844E+006	243.336
324.0000	-1.47497E+006	241.544
323.9000	-1.65065E+006	240.963
323.8000	-1.81173E+006	240.664
323.7000	-1.9715E+006	240.512
323.6000	-1.94971E+006	240.343
323.5000	-1.61863E+006	240.186
323.4000	-1.18059E+006	240.019
323.3000	-900898	239.941
323.2000	-908497	239.904
323.1000	-627325	239.786
323.0000	-404452	239.663
322.9000	-429582	239.504
322.8000	-280001	239.4
322.7000	-314953	239.224
322.6000	-225664	239.048
322.5000	315412	238.843
322.4000	643898	238.633
322.3000	645394	238.475
322.2000	706678	238.243
322.1000	478862	238.028
322.0000	325193	237.822
321.9000	488662	237.685
321.8000	360620	237.506
321.7000	163947	237.348
321.6000	78177.8	237.202
321.5000	334043	237.054
321.4000	353834	236.989
321.3000	507575	236.902
321.2000	314376	236.819
321.1000	-218822	236.708
321.0000	-481266	236.66
320.9000	-619224	236.577
320.8000	-558848	236.491
320.7000	-488176	236.385
320.6000	-584736	236.275
320.5000	-523086	236.208
320.4000	-307636	236.077
320.3000	326847	235.959
320.2000	935266	235.825
320.1000	1.58304E+006	235.739
320.0000	1.56038E+006	235.619
319.9000	1.29143E+006	235.515
319.8000	1.23129E+006	235.396
319.7000	1.13854E+006	235.273
319.6000	831868	235.156
319.5000	418321	235.071
319.4000	-253507	234.996
319.3000	-989048	234.872
319.2000	-1.41868E+006	234.78
319.1000	-1.22766E+006	234.65
319.0000	-1.23001E+006	234.532
318.9000	-1.2911E+006	234.38
318.8000	-1.1968E+006	234.267
318.7000	-1.25256E+006	234.099
318.6000	-780591	233.929
318.5000	-231342	233.777
318.4000	239815	233.642
318.3000	83377	233.516
318.2000	-187412	233.411
318.1000	-456980	233.334
318.0000	-594498	233.235
317.9000	-533967	233.185
317.8000	-466369	233.121
317.7000	-576436	233.067
317.6000	-675493	232.962
317.5000	-741924	232.876
317.4000	-497512	232.756
317.3000	102049	232.632
317.2000	503755	232.491
317.1000	1.01398E+006	232.357
317.0000	1.3564E+006	232.19
316.9000	1.31626E+006	232.027
316.8000	1.05168E+006	231.883
316.7000	997420	231.757
316.6000	823541	231.646
316.5000	252844	231.545
316.4000	-274214	231.427
316.3000	-797511	231.32
316.2000	-1.01428E+006	231.233
316.1000	-1.05166E+006	231.171
316.0000	-1.00339E+006	231.125
315.9000	-982406	231.031
315.8000	-825071	230.947
315.7000	-605744	230.835
315.6000	-18205.1	230.761
315.5000	321011	230.653
315.4000	481827	230.559
315.3000	745296	230.417
315.2000	945126	230.27
315.1000	976875	230.135
315.0000	1.26948E+006	230.017
314.9000	1.40503E+006	229.909
314.8000	888371	229.805
314.7000	449045	229.698
314.6000	-219252	229.604
314.5000	-690285	229.524
314.4000	-799930	229.461
314.3000	-717152	229.366
314.2000	-846531	229.278
314.1000	-1.13422E+006	229.167
314.0000	-1.00807E+006	229.062
313.9000	-673579	228.943
313.8000	-453649	228.832
313.7000	-211129	228.686
313.6000	-209912	228.547
313.5000	-235483	228.419
313.4000	-386322	228.305
313.3000	-500492	228.202
313.2000	-694904	228.106
313.1000	-826152	228.004
313.0000	-835632	227.915
312.9000	-900917	227.836
312.8000	-868794	227.775
312.7000	-601957	227.687
312.6000	-319176	227.609
312.5000	-216818	227.501
312.4000	-45173.6	227.393
312.3000	217530	227.273
312.2000	15187.2	227.158
312.1000	-38542.6	227.016
312.0000	27609	226.878
311.9000	-129263	226.739
311.8000	-302418	226.602
311.7000	-555386	226.492
311.6000	-725557	226.36
311.5000	-786856	226.256
311.4000	-453152	226.148
311.3000	-189770	226.076
311.2000	252143	225.985
311.1000	579423	225.922
311.0000	626198	225.854
310.9000	861191	225.788
310.8000	1.33852E+006	225.716
310.7000	1.50863E+006	225.659
310.6000	1.59296E+006	225.577
310.5000	1.95113E+006	225.505
310.4000	1.81247E+006	225.433
310.3000	1.46258E+006	225.372
310.2000	1.20275E+006	225.314
310.1000	1.1862E+006	225.267
310.0000	1.08633E+006	225.212
309.9000	1.38586E+006	225.168
309.8000	1.50555E+006	225.128
309.7000	1.33354E+006	225.061
309.6000	1.19343E+006	225.012
309.5000	1.13676E+006	224.947
309.4000	1.30355E+006	224.892
309.3000	1.48092E+006	224.793
309.2000	1.67711E+006	224.716
309.1000	1.28945E+006	224.616
309.0000	1.15181E+006	224.528
308.9000	1.15397E+006	224.449
308.8000	1.15262E+006	224.38
308.7000	1.4133E+006	224.315
308.6000	1.47501E+006	224.254
308.5000	1.12882E+006	224.188
308.4000	845646	224.125
308.3000	851139	224.083
308.2000	1.03299E+006	224.007
308.1000	1.05063E+006	223.946
308.0000	1.12333E+006	223.878
307.9000	1.09574E+006	223.818
307.8000	1.11205E+006	223.722
307.7000	1.16608E+006	223.652
307.6000	1.09323E+006	223.576
307.5000	1.25283E+006	223.465
307.4000	1.24497E+006	223.387
307.3000	1.09419E+006	223.317
307.2000	1.0316E+006	223.258
307.1000	764620	223.167
307.0000	489754	223.104
306.9000	362760	223.047
306.8000	463283	223.01
306.7000	379624	222.964
306.6000	77198.2	222.911
306.5000	46036.3	222.864
306.4000	282815	222.781
306.3000	336372	222.721
306.2000	580444	222.647
306.1000	530554	222.578
306.0000	318924	222.478
305.9000	19482.3	222.406
305.8000	24779.5	222.354
305.7000	239039	222.266
305.6000	-51465.4	222.204
305.5000	-398439	222.157
305.4000	-669401	222.127
305.3000	-618392	222.06
305.2000	-340655	222.014
305.1000	-65134.3	221.972
305.0000	140113	221.891
304.9000	102125	221.84
304.8000	60364.5	221.787
304.7000	527201	221.732
304.6000	837493	221.645
304.5000	1.07439E+006	221.589
304.4000	987760	221.549
304.3000	880033	221.464
304.2000	811997	221.413
304.1000	925169	221.381
304.0000	1.05804E+006	221.36
303.9000	932335	221.296
303.8000	824849	221.251
303.7000	467695	221.222
303.6000	222055	221.147
303.5000	344378	221.104
303.4000	625505	221.063
303.3000	818135	220.992
303.2000	564865	220.917
303.1000	421685	220.869
303.0000	198553	220.839
302.9000	386605	220.764
302.8000	529680	220.715
302.7000	286590	220.681
302.6000	90264.2	220.617
302.5000	-385426	220.574
302.4000	-499893	220.537
302.3000	-417661	220.47
302.2000	-423463	220.403
302.1000	-568859	220.348
302.0000	-698755	220.311
301.9000	-365578	220.251
301.8000	-159117	220.207
301.7000	-86590.8	220.18
301.6000	143873	220.121
301.5000	378516	220.089
301.4000	462703	220.059
301.3000	700902	220.009
301.2000	674951	219.964
301.1000	717988	219.927
301.0000	354023	219.904
300.9000	281760	219.849
300.8000	331681	219.799
300.7000	236926	219.762
300.6000	126878	219.709
300.5000	47769.4	219.67
300.4000	32405.1	219.643
300.3000	-109117	219.589
300.2000	81745.7	219.537
300.1000	194713	219.502
300.0000	63137.5	219.458
299.9000	-13043.4	219.421
299.8000	-309753	219.387
299.7000	-554779	219.34
299.6000	-776816	219.292
299.5000	-639324	219.256
299.4000	-647082	219.232
299.3000	-614179	219.188
299.2000	-686868	219.158
299.1000	-707507	219.137
299.0000	-706052	219.09
298.9000	-718146	219.061
298.8000	-735071	219.042
298.7000	-671232	219.003
298.6000	-662103	218.965
298.5000	-929626	218.933
298.4000	-1.19172E+006	223.279
298.3000	-1.39611E+006	229.243
298.2000	-1.23209E+006	230.563
298.1000	-1.04858E+006	230.842
298.0000	-766651	230.886
297.9000	-580354	230.881
297.8000	-706196	230.846
297.7000	-619936	230.815
297.6000	-321776	230.629
297.5000	27058.9	221.469
297.4000	-55715.3	219.236
297.3000	-205696	218.699
297.2000	-238625	218.535
297.1000	-287159	218.469
297.0000	-157772	218.433
296.9000	-119173	218.392
296.8000	-269956	218.357
296.7000	-239224	218.332
296.6000	-195264	218.316
296.5000	-99619.2	218.287
296.4000	-105184	218.266
296.3000	-221987	218.251
296.2000	-190950	218.224
296.1000	-266671	218.202
296.0000	-308661	218.184
295.9000	-143915	218.158
295.8000	-257749	218.119
295.7000	-257504	218.095
295.6000	-342117	218.071
295.5000	-579058	218.031
295.4000	-761504	217.989
295.3000	-889045	217.967
295.2000	-772814	217.933
295.1000	-849741	217.894
295.0000	-927433	217.874
294.9000	-1.038E+006	217.84
294.8000	-1.31197E+006	217.8
294.7000	-1.16098E+006	217.78
294.6000	-1.02905E+006	217.761
294.5000	-739573	217.733
294.4000	-775486	217.712
294.3000	-759240	217.694
294.2000	-547843	217.666
294.1000	-279763	217.649
294.0000	153515	217.637
293.9000	277277	217.61
293.8000	314501	217.593
293.7000	226391	217.579
293.6000	-85177.9	217.548
293.5000	-252964	217.513
293.4000	-541702	217.494
293.3000	-659873	217.468
293.2000	-543688	217.438
293.1000	-372544	217.426
293.0000	-282766	217.4
292.9000	-303002	217.369
292.8000	-263615	217.355
292.7000	1450.53	217.346
292.6000	57463.5	217.323
292.5000	461320	217.292
292.4000	280287	217.273
292.3000	50218.4	217.24
292.2000	-87755	217.21
292.1000	-387057	217.196
292.0000	-770802	217.169
291.9000	-1.10748E+006	217.136
291.8000	-1.19133E+006	217.106
291.7000	-1.24352E+006	217.096
291.6000	-1.31552E+006	217.073
291.5000	-1.39012E+006	217.046
291.4000	-1.36219E+006	217.034
291.3000	-930187	217.005
291.2000	-498864	216.968
291.1000	62176.7	216.931
291.0000	427254	216.905
290.9000	375589	216.861
290.8000	390783	216.804
290.7000	225570	216.741
290.6000	326742	216.673
290.5000	394208	216.591
290.4000	575128	216.508
290.3000	652308	216.438
290.2000	531940	216.351
290.1000	358906	216.261
290.0000	311773	216.182
289.9000	419436	216.129
289.8000	640089	216.086
289.7000	723244	216.058
289.6000	785794	216.054
289.5000	605476	216.071
289.4000	625814	216.101
289.3000	744015	216.151
289.2000	734049	216.215
289.1000	852254	216.288
289.0000	883947	216.355
288.9000	828172	216.418
288.8000	621274	216.473
288.7000	644219	216.523
288.6000	577106	216.557
288.5000	608321	216.585
288.4000	854123	216.601
288.3000	1.05916E+006	216.611
288.2000	933910	216.612
288.1000	618139	216.605
288.0000	608735	216.591
287.9000	800013	216.567
287.8000	1.11738E+006	216.554
287.7000	1.50772E+006	216.539
287.6000	1.42126E+006	216.523
287.5000	1.05312E+006	216.499
287.4000	911752	216.485
287.3000	1.23608E+006	216.473
287.2000	1.23727E+006	216.466
287.1000	1.14583E+006	216.457
287.0000	938216	216.436
286.9000	520506	216.423
286.8000	380543	216.413
286.7000	365913	216.406
286.6000	546506	216.387
286.5000	698280	216.38
286.4000	891464	216.377
286.3000	1.03488E+006	216.374
286.2000	801923	216.374
286.1000	600047	216.364
286.0000	767916	216.363
285.9000	723956	216.358
285.8000	816236	216.354
285.7000	538270	216.345
285.6000	158921	216.326
285.5000	-53567.8	216.323
285.4000	-58925.3	216.325
285.3000	236696	216.326
285.2000	119000	216.319
285.1000	64738.7	216.309
285.0000	161894	216.315
284.9000	324134	216.318
284.8000	637395	216.32
284.7000	667397	216.317
284.6000	563957	216.303
284.5000	235121	216.305
284.4000	305549	216.312
284.3000	393183	216.318
284.2000	533248	216.319
284.1000	573342	216.311
284.0000	670057	216.306
283.9000	744015	216.312
283.8000	935092	216.321
283.7000	1.24089E+006	216.325
283.6000	1.38267E+006	216.317
283.5000	1.42208E+006	216.314
283.4000	1.52683E+006	216.306
283.3000	1.53946E+006	216.313
283.2000	1.50193E+006	216.33
283.1000	1.59961E+006	216.333
283.0000	1.76832E+006	216.331
282.9000	1.96429E+006	216.327
282.8000	2.14672E+006	216.33
282.7000	2.17784E+006	216.346
282.6000	1.95711E+006	216.359
282.5000	1.82439E+006	216.365
282.4000	1.70821E+006	216.361
282.3000	1.36052E+006	216.36
282.2000	1.12267E+006	216.358
282.1000	870561	216.371
282.0000	337788	216.378
281.9000	180965	216.38
281.8000	176998	216.382
281.7000	96932.9	216.381
281.6000	109276	216.383
281.5000	242110	216.384
281.4000	375826	216.399
281.3000	376361	216.408
281.2000	639215	216.41
281.1000	797161	216.406
281.0000	586039	216.4
280.9000	842997	216.398
280.8000	990985	216.395
280.7000	983751	216.392
280.6000	807175	216.392
280.5000	857276	216.382
280.4000	1.0019E+006	216.375
280.3000	913689	216.37
280.2000	1.16773E+006	216.364
280.1000	1.11919E+006	216.358
280.0000	1.0622E+006	216.352
279.9000	1.00496E+006	216.345
279.8000	1.24126E+006	216.331
279.7000	1.54502E+006	216.328
279.6000	1.5297E+006	216.325
279.5000	1.40909E+006	216.324
279.4000	1.17181E+006	216.323
279.3000	1.09202E+006	216.321
279.2000	1.08506E+006	216.321
279.1000	1.07942E+006	216.324
279.0000	975138	216.329
278.9000	973062	216.327
278.8000	957894	216.338
278.7000	1.10806E+006	216.344
278.6000	1.40359E+006	216.353
278.5000	1.39846E+006	216.361
278.4000	1.41897E+006	216.366
278.3000	1.2285E+006	216.372
278.2000	933405	216.377
278.1000	876212	216.382
278.0000	709115	216.378
277.9000	487215	216.373
277.8000	168717	216.368
277.7000	229255	216.364
277.6000	445105	216.377
277.5000	413705	216.388
277.4000	624665	216.401
277.3000	631213	216.413
277.2000	609862	216.423
277.1000	769683	216.434
277.0000	731763	216.441
276.9000	657729	216.452
276.8000	486507	216.455
276.7000	653280	216.457
276.6000	809910	216.459
276.5000	827283	216.46
276.4000	744972	216.463
276.3000	844048	216.466
276.2000	763007	216.471
276.1000	829897	216.479
276.0000	685771	216.498
275.9000	625953	216.519
275.8000	795865	216.536
275.7000	837892	216.551
275.6000	861146	216.567
275.5000	678157	216.581
275.4000	664142	216.597
275.3000	1.00736E+006	216.616
275.2000	1.16419E+006	216.626
275.1000	1.25492E+006	216.627
275.0000	894455	216.624
274.9000	744388	216.627
274.8000	712913	216.63
274.7000	942405	216.633
274.6000	1.18444E+006	216.636
274.5000	1.1569E+006	216.641
274.4000	901557	216.643
274.3000	631107	229.367
274.2000	365653	242.314
274.1000	165612	255.221
274.0000	-168182	268.122
273.9000	-667962	281.027
273.8000	-1.15249E+006	293.937
273.7000	-1.16226E+006	306.847
273.6000	-1.02583E+006	319.756
273.5000	-909409	324.377
273.4000	-785978	324.209
273.3000	-687806	324.223
273.2000	-348104	324.239
273.1000	22051.8	324.255
273.0000	-51959	324.265
272.9000	-541386	324.275
272.8000	-718184	324.286
272.7000	-799519	324.303
272.6000	-712634	324.322
272.5000	-455111	324.342
272.4000	-345410	324.361
272.3000	-493778	324.381
272.2000	-447908	324.403
272.1000	-174255	324.426
272.0000	-29021.8	324.454
271.9000	59087.3	324.478
271.8000	-207056	324.499
271.7000	-453461	324.522
271.6000	-1.05855E+006	324.54
271.5000	-1.34106E+006	324.561
271.4000	-1.39242E+006	324.579
271.3000	-1.40633E+006	324.599
271.2000	-1.61763E+006	324.616
271.1000	-1.94399E+006	324.627
271.0000	-1.86766E+006	324.634
270.9000	-1.74923E+006	324.626
270.8000	-1.61762E+006	324.616
270.7000	-1.46612E+006	324.612
270.6000	-1.50284E+006	324.605
270.5000	-1.5322E+006	324.596
270.4000	-1.64079E+006	324.588
270.3000	-1.29968E+006	324.582
270.2000	-1.17753E+006	324.585
270.1000	-1.22217E+006	324.602
270.0000	-1.02491E+006	324.625
269.9000	-936445	324.643
269.8000	-848483	324.656
269.7000	-765596	324.671
269.6000	-560612	324.685
269.5000	-538801	324.698
269.4000	-381703	324.7
269.3000	-188033	324.703
269.2000	-501076	324.703
269.1000	-367835	324.711
269.0000	16234.6	324.724
268.9000	20356.4	324.745
268.8000	-22997.4	324.762
268.7000	-35724.4	324.789
268.6000	-266494	324.823
268.5000	-578127	324.866
268.4000	-487580	324.91
268.3000	-478252	324.943
268.2000	-533719	324.981
268.1000	-475596	325.015
268.0000	-160466	325.053
267.9000	-243707	325.087
267.8000	-329285	325.123
267.7000	-251039	325.167
267.6000	-408661	325.208
267.5000	-676126	325.257
267.4000	-803814	325.295
267.3000	-811270	325.338
267.2000	-911522	325.384
267.1000	-1.06194E+006	325.435
267.0000	-617913	325.488
266.9000	-367428	325.536
266.8000	-253281	325.585
266.7000	-49110.7	325.612
266.6000	-93022.1	325.647
266.5000	-43440.5	325.691
266.4000	-155617	325.734
266.3000	-48997.7	325.779
266.2000	-159686	325.818
266.1000	-218909	325.857
266.0000	-176395	325.874
265.9000	-324590	325.912
265.8000	126429	325.969
265.7000	279899	326.028
265.6000	240350	326.092
265.5000	68257.7	326.151
265.4000	183652	326.201
265.3000	239593	326.249
265.2000	96443.1	326.314
265.1000	204321	326.387
265.0000	178076	326.444
264.9000	-78275.7	326.502
264.8000	-25318.3	326.536
264.7000	161280	326.576
264.6000	-23897.9	326.629
264.5000	-283610	326.687
264.4000	-501347	326.75
264.3000	-594550	326.794
264.2000	-713482	326.846
264.1000	-728146	326.913
264.0000	-825169	326.986
263.9000	-982527	327.061
263.8000	-1.02301E+006	327.116
263.7000	-1.15472E+006	327.173
263.6000	-1.30023E+006	327.234
263.5000	-1.23987E+006	327.303
263.4000	-1.01318E+006	327.389
263.3000	-896407	327.448
263.2000	-637727	327.506
263.1000	-347380	327.576
263.0000	281854	327.653
262.9000	464941	327.721
262.8000	836178	327.79
262.7000	997895	327.862
262.6000	1.01049E+006	327.936
262.5000	915784	328.015
262.4000	640929	328.086
262.3000	471455	328.156
262.2000	412613	328.223
262.1000	240226	328.306
262.0000	135494	328.38
261.9000	316226	328.451
261.8000	438948	328.523
261.7000	379684	328.583
261.6000	347369	328.651
261.5000	146865	328.722
261.4000	-226358	328.784
261.3000	-356050	328.834
261.2000	-199476	328.904
261.1000	-114833	328.982
261.0000	-275220	329.056
260.9000	-463490	329.111
260.8000	-464010	329.171
260.7000	-342837	329.236
260.6000	-206483	329.305
260.5000	-44706.4	329.386
260.4000	5564.75	329.472
260.3000	-298797	329.548
260.2000	-367304	329.61
260.1000	-101394	329.691
260.0000	-145799	329.784
259.9000	-188779	329.866
259.8000	-14079.5	329.949
259.7000	213325	330.028
259.6000	264618	330.092
259.5000	284721	330.151
259.4000	437430	330.222
259.3000	615095	330.287
259.2000	784257	330.359
259.1000	1.15055E+006	330.441
259.0000	1.43693E+006	330.512
258.9000	1.15929E+006	330.587
258.8000	964721	330.671
258.7000	1.28333E+006	330.752
258.6000	1.35039E+006	330.839
258.5000	995449	330.932
258.4000	552839	331.013
258.3000	490862	331.089
258.2000	354317	331.174
258.1000	293413	331.254
258.0000	282122	331.339
257.9000	244031	331.432
257.8000	237822	331.51
257.7000	485621	331.581
257.6000	789701	331.66
257.5000	786412	331.732
257.4000	490451	331.807
257.3000	197720	331.875
257.2000	162271	331.945
257.1000	96428	332.014
257.0000	159208	332.089
256.9000	-104675	332.169
256.8000	-178965	332.24
256.7000	-43753.2	332.318
256.6000	-113446	332.401
256.5000	64410.9	332.477
256.4000	169832	332.556
256.3000	420717	332.634
256.2000	578293	332.721
256.1000	897439	332.811
256.0000	890382	332.884
255.9000	752100	332.958
255.8000	768956	333.018
255.7000	1.10784E+006	333.092
255.6000	1.22416E+006	333.175
255.5000	1.25495E+006	333.256
255.4000	1.03056E+006	333.33
255.3000	558419	333.387
255.2000	217070	333.458
255.1000	189322	333.528
255.0000	176738	333.604
254.9000	242811	333.669
254.8000	101367	333.735
254.7000	-212915	333.805
254.6000	-406961	333.872
254.5000	-471116	333.952
254.4000	-436156	334.03
254.3000	-295071	334.117
254.2000	-337769	334.204
254.1000	-476044	334.297
254.0000	-537060	334.388
253.9000	-706813	334.476
253.8000	-1.00702E+006	334.552
253.7000	-1.06923E+006	334.635
253.6000	-813945	334.712
253.5000	-814993	334.792
253.4000	-267232	334.87
253.3000	50079	334.952
253.2000	199054	335.032
253.1000	284213	335.108
253.0000	562759	335.2
252.9000	578779	335.292
252.8000	607711	335.372
252.7000	867246	335.454
252.6000	743431	335.529
252.5000	198376	335.604
252.4000	-137819	335.678
252.3000	-301359	335.757
252.2000	-552945	335.816
252.1000	-476025	335.875
252.0000	-431812	335.938
251.9000	-711538	335.999
251.8000	-911112	336.073
251.7000	-729762	336.143
251.6000	-595937	336.221
251.5000	-382133	336.291
251.4000	-195964	336.378
251.3000	192374	336.465
251.2000	383391	336.538
251.1000	396367	336.621
251.0000	186986	336.699
250.9000	-167086	336.787
250.8000	-552059	336.863
250.7000	-791547	336.945
250.6000	-872479	337.014
250.5000	-1.15997E+006	337.073
250.4000	-1.50247E+006	337.15
250.3000	-1.77188E+006	337.228
250.2000	-1.88755E+006	337.317
250.1000	-1.56827E+006	337.398
250.0000	-1.35791E+006	337.478
249.9000	-1.43505E+006	337.563
249.8000	-1.45914E+006	337.645
249.7000	-965230	337.745
249.6000	-486993	337.837
249.5000	-289408	337.925
249.4000	279564	338.016
249.3000	390885	338.096
249.2000	227469	338.176
249.1000	339318	338.265
249.0000	597082	338.352
248.9000	414572	338.432
248.8000	397851	338.53
248.7000	498876	338.623
248.6000	407436	338.696
248.5000	500567	338.771
248.4000	737813	338.852
248.3000	864491	338.922
248.2000	1.04974E+006	338.996
248.1000	1.13687E+006	339.069
248.0000	824461	339.125
247.9000	445044	339.187
247.8000	179982	339.255
247.7000	-240987	339.32
247.6000	-418946	339.391
247.5000	-305262	339.458
247.4000	-179869	339.518
247.3000	-539114	339.578
247.2000	-844372	339.657
247.1000	-899123	339.728
247.0000	-877011	339.798
246.9000	-635161	339.884
246.8000	-585949	339.962
246.7000	-786446	340.035
246.6000	-1.27879E+006	340.107
246.5000	-1.49506E+006	340.189
246.4000	-1.13842E+006	340.269
246.3000	-696607	340.346
246.2000	-347501	340.421
246.1000	1262.15	340.506
246.0000	-111340	340.597
245.9000	-48330.8	340.695
245.8000	-26030.4	340.795
245.7000	224368	340.902
245.6000	146224	340.999
245.5000	-232088	341.09
245.4000	-674536	341.192
245.3000	-1.49274E+006	341.282
245.2000	-1.66142E+006	341.372
245.1000	-1.97536E+006	341.463
245.0000	-2.07454E+006	341.554
244.9000	-1.97154E+006	341.638
244.8000	-1.99103E+006	341.723
244.7000	-2.04496E+006	341.818
244.6000	-2.1085E+006	341.913
244.5000	-1.78485E+006	342.009
244.4000	-1.52961E+006	342.101
244.3000	-1.21751E+006	342.186
244.2000	-780267	342.271
244.1000	-805589	342.369
244.0000	-664383	342.472
243.9000	-566271	342.572
243.8000	-378467	342.664
243.7000	-80445.8	342.755
243.6000	-301227	342.842
243.5000	-706139	342.931
243.4000	-898080	343.033
243.3000	-865166	343.135
243.2000	-764597	343.227
243.1000	-650563	343.315
243.0000	-438997	343.406
242.9000	-473486	343.502
242.8000	-606735	343.602
242.7000	-204807	343.712
242.6000	102441	343.819
242.5000	-28844.8	343.913
242.4000	-81824.8	344.013
242.3000	-136203	344.117
242.2000	-438221	344.225
242.1000	-632211	344.337
242.0000	-740292	344.447
241.9000	-817687	344.553
241.8000	-969901	344.659
241.7000	-1.01222E+006	344.767
241.6000	-916921	344.872
241.5000	-1.16789E+006	344.976
241.4000	-1.11706E+006	345.089
241.3000	-1.10249E+006	345.198
241.2000	-1.37731E+006	345.298
241.1000	-1.65021E+006	345.406
241.0000	-2.22155E+006	345.521
240.9000	-2.72433E+006	345.636
240.8000	-2.94411E+006	345.758
240.7000	-3.19397E+006	345.889
240.6000	-3.62535E+006	346.01
240.5000	-4.0885E+006	346.125
240.4000	-3.82011E+006	346.252
240.3000	-3.50383E+006	346.38
240.2000	-3.07742E+006	346.507
240.1000	-2.47637E+006	346.636
240.0000	-2.54485E+006	346.764
239.9000	-2.36969E+006	346.887
239.8000	-2.41999E+006	347.015
239.7000	-2.1374E+006	347.155
239.6000	-2.23195E+006	347.291
239.5000	-2.54476E+006	347.433
239.4000	-2.37383E+006	347.571
239.3000	-2.51056E+006	347.707
239.2000	-2.29639E+006	347.846
239.1000	-2.08299E+006	347.994
239.0000	-1.76059E+006	348.148
238.9000	-1.4634E+006	348.301
238.8000	-1.05505E+006	348.454
238.7000	-1.02384E+006	348.601
238.6000	-1.39818E+006	348.74
238.5000	-1.25002E+006	348.886
238.4000	-1.12616E+006	349.035
238.3000	-1.11987E+006	349.187
238.2000	-1.52657E+006	349.332
238.1000	-1.73767E+006	349.473
238.0000	-1.94685E+006	349.62
237.9000	-1.98794E+006	349.771
237.8000	-1.50416E+006	349.93
237.7000	-1.85764E+006	350.09
237.6000	-2.41432E+006	350.248
237.5000	-2.88102E+006	350.404
237.4000	-3.09574E+006	350.558
237.3000	-3.37904E+006	350.714
237.2000	-3.79179E+006	350.878
237.1000	-3.88084E+006	351.037
237.0000	-4.16505E+006	351.195
236.9000	-4.46768E+006	351.352
236.8000	-4.43585E+006	351.51
236.7000	-4.42448E+006	351.67
236.6000	-4.40473E+006	351.826
236.5000	-4.21896E+006	351.99
236.4000	-3.95155E+006	352.147
236.3000	-3.97491E+006	352.311
236.2000	-4.28866E+006	352.48
236.1000	-4.3855E+006	352.646
236.0000	-4.53002E+006	352.812
235.9000	-4.54611E+006	352.984
235.8000	-4.60807E+006	353.165
235.7000	-4.71801E+006	353.345
235.6000	-4.4359E+006	353.524
235.5000	-3.98239E+006	353.706
235.4000	-3.80317E+006	353.889
235.3000	-3.68931E+006	354.073
235.2000	-2.97203E+006	354.264
235.1000	-2.6293E+006	354.455
235.0000	-2.48838E+006	354.643
234.9000	-2.30997E+006	354.827
234.8000	-2.6695E+006	355.013
234.7000	-3.15589E+006	355.202
234.6000	-3.18249E+006	355.385
234.5000	-3.31461E+006	355.57
234.4000	-3.4221E+006	355.758
234.3000	-3.35383E+006	355.942
234.2000	-3.13851E+006	356.128
234.1000	-3.20363E+006	356.32
234.0000	-2.86874E+006	356.511
233.9000	-2.86526E+006	356.703
233.8000	-3.05908E+006	356.9
233.7000	-3.10763E+006	357.099
233.6000	-3.34941E+006	357.304
233.5000	-4.26985E+006	357.513
233.4000	-4.84325E+006	357.716
233.3000	-4.95818E+006	357.922
233.2000	-5.37358E+006	358.129
233.1000	-5.56956E+006	358.332
233.0000	-5.25456E+006	358.543
232.9000	-4.85738E+006	358.752
232.8000	-4.55787E+006	358.962
232.7000	-4.18117E+006	359.167
232.6000	-3.88881E+006	359.373
232.5000	-3.80616E+006	359.583
232.4000	-3.82861E+006	359.792
232.3000	-3.75937E+006	360.005
232.2000	-3.64356E+006	360.213
232.1000	-3.8729E+006	360.426
232.0000	-4.27118E+006	360.633
231.9000	-4.83185E+006	360.838
231.8000	-4.98229E+006	361.043
231.7000	-4.73736E+006	361.254
231.6000	-4.12156E+006	361.469
231.5000	-4.42779E+006	361.676
231.4000	-5.07253E+006	361.882
231.3000	-5.52436E+006	362.085
231.2000	-5.46655E+006	362.297
231.1000	-5.43464E+006	362.509
231.0000	-5.45858E+006	362.723
230.9000	-6.32002E+006	362.934
230.8000	-7.57538E+006	363.135
230.7000	-8.29547E+006	363.343
230.6000	-8.62145E+006	363.559
230.5000	-9.00348E+006	363.781
230.4000	-9.30463E+006	363.997
230.3000	-9.67066E+006	364.218
230.2000	-9.89872E+006	364.442
230.1000	-9.89452E+006	364.673
230.0000	-9.99426E+006	364.907
229.9000	-9.97194E+006	365.135
229.8000	-9.83008E+006	365.366
229.7000	-9.68211E+006	365.591
229.6000	-9.75544E+006	365.813
229.5000	-9.75612E+006	366.024
229.4000	-9.02178E+006	366.234
229.3000	-8.87145E+006	366.439
229.2000	-8.39184E+006	366.641
229.1000	-7.82824E+006	366.84
229.0000	-7.43669E+006	367.04
228.9000	-7.37133E+006	367.239
228.8000	-7.42505E+006	367.44
228.7000	-8.11152E+006	367.657
228.6000	-9.2376E+006	367.878
228.5000	-1.03128E+007	368.103
228.4000	-1.04505E+007	368.343
228.3000	-1.09472E+007	368.589
228.2000	-1.136E+007	368.843
228.1000	-1.16446E+007	369.102
228.0000	-1.1194E+007	369.364
227.9000	-1.06624E+007	369.624
227.8000	-9.94763E+006	369.875
227.7000	-9.44127E+006	370.133
227.6000	-9.08167E+006	370.386
227.5000	-9.28336E+006	370.631
227.4000	-9.27076E+006	370.873
227.3000	-8.8785E+006	371.118
227.2000	-9.35496E+006	371.354
227.1000	-9.5965E+006	371.589
227.0000	-1.02939E+007	371.824
226.9000	-1.06974E+007	372.053
226.8000	-1.10106E+007	372.282
226.7000	-1.09476E+007	372.517
226.6000	-1.13843E+007	372.748
226.5000	-1.1729E+007	372.975
226.4000	-1.17252E+007	373.2
226.3000	-1.17076E+007	373.427
226.2000	-1.18581E+007	373.658
226.1000	-1.16287E+007	373.891
226.0000	-1.15255E+007	374.122
225.9000	-1.17521E+007	374.347
225.8000	-1.14886E+007	374.573
225.7000	-1.16113E+007	374.797
225.6000	-1.14991E+007	375.028
225.5000	-1.1576E+007	375.257
225.4000	-1.11635E+007	375.485
225.3000	-1.06709E+007	375.719
225.2000	-1.0685E+007	375.952
225.1000	-1.07636E+007	376.187
225.0000	-1.06093E+007	376.422
224.9000	-9.64101E+006	376.658
224.8000	-9.0785E+006	376.89
224.7000	-8.96218E+006	377.116
224.6000	-9.02714E+006	377.346
224.5000	-9.07341E+006	377.574
224.4000	-8.88288E+006	377.8
224.3000	-8.68811E+006	378.026
224.2000	-8.83032E+006	378.249
224.1000	-9.57251E+006	378.472
224.0000	-1.03407E+007	378.696
223.9000	-1.08608E+007	378.925
223.8000	-1.05425E+007	379.157
223.7000	-1.09912E+007	379.388
223.6000	-1.16075E+007	379.619
223.5000	-1.20395E+007	379.852
223.4000	-1.23544E+007	380.086
223.3000	-1.24271E+007	380.317
223.2000	-1.23216E+007	380.549
223.1000	-1.22374E+007	380.783
223.0000	-1.28438E+007	381.012
222.9000	-1.36349E+007	381.239
222.8000	-1.40361E+007	381.469
222.7000	-1.42907E+007	381.7
222.6000	-1.41742E+007	381.933
222.5000	-1.4311E+007	382.171
222.4000	-1.48546E+007	382.405
222.3000	-1.50051E+007	382.641
222.2000	-1.49554E+007	382.877
222.1000	-1.46626E+007	383.117
222.0000	-1.41082E+007	383.358
221.9000	-1.34762E+007	383.59
221.8000	-1.33616E+007	383.821
221.7000	-1.32755E+007	384.055
221.6000	-1.23809E+007	384.292
221.5000	-1.18904E+007	384.532
221.4000	-1.15152E+007	384.766
221.3000	-1.13595E+007	384.999
221.2000	-1.15206E+007	385.229
221.1000	-1.16707E+007	385.46
221.0000	-1.15672E+007	385.691
220.9000	-1.11447E+007	385.924
220.8000	-1.0809E+007	386.159
220.7000	-1.08367E+007	386.387
220.6000	-1.09413E+007	386.62
220.5000	-1.07547E+007	386.857
220.4000	-1.07005E+007	387.083
220.3000	-1.0843E+007	387.313
220.2000	-1.0522E+007	387.553
220.1000	-1.03979E+007	387.791
220.0000	-1.11773E+007	388.022
219.9000	-1.21133E+007	388.26
219.8000	-1.26989E+007	388.497
219.7000	-1.32407E+007	388.732
219.6000	-1.34437E+007	388.971
219.5000	-1.32256E+007	389.219
219.4000	-1.35711E+007	389.461
219.3000	-1.41142E+007	389.701
219.2000	-1.41117E+007	389.946
219.1000	-1.37034E+007	390.192
219.0000	-1.40606E+007	390.437
218.9000	-1.37344E+007	390.681
218.8000	-1.29189E+007	390.937
218.7000	-1.23005E+007	391.183
218.6000	-1.19298E+007	391.43
218.5000	-1.16283E+007	391.674
218.4000	-1.14073E+007	391.918
218.3000	-1.14334E+007	392.157
218.2000	-1.09434E+007	392.401
218.1000	-1.04445E+007	392.649
218.0000	-1.08764E+007	392.888
217.9000	-1.13843E+007	393.131
217.8000	-1.1511E+007	393.373
217.7000	-1.17159E+007	393.616
217.6000	-1.13206E+007	393.86
217.5000	-1.14839E+007	394.107
217.4000	-1.16307E+007	394.349
217.3000	-1.19741E+007	394.587
217.2000	-1.23642E+007	394.83
217.1000	-1.20087E+007	395.076
217.0000	-1.23018E+007	395.313
216.9000	-1.26992E+007	395.56
216.8000	-1.36303E+007	395.803
216.7000	-1.43063E+007	396.042
216.6000	-1.43099E+007	396.287
216.5000	-1.37364E+007	396.535
216.4000	-1.34461E+007	396.781
216.3000	-1.33765E+007	397.025
216.2000	-1.30663E+007	397.28
216.1000	-1.33239E+007	397.531
216.0000	-1.29018E+007	397.779
215.9000	-1.30324E+007	398.028
215.8000	-1.28229E+007	398.277
215.7000	-1.30188E+007	398.534
215.6000	-1.37136E+007	398.79
215.5000	-1.41947E+007	399.047
215.4000	-1.40161E+007	399.308
215.3000	-1.28871E+007	399.571
215.2000	-1.20089E+007	399.833
215.1000	-1.19128E+007	400.099
215.0000	-1.18839E+007	400.368
214.9000	-1.19373E+007	400.634
214.8000	-1.14778E+007	400.898
214.7000	-1.09646E+007	401.165
214.6000	-1.16395E+007	401.424
214.5000	-1.22181E+007	401.685
214.4000	-1.25357E+007	401.949
214.3000	-1.28379E+007	402.215
214.2000	-1.28674E+007	402.481
214.1000	-1.26482E+007	402.747
214.0000	-1.22903E+007	403.02
213.9000	-1.23853E+007	403.296
213.8000	-1.23792E+007	403.573
213.7000	-1.2282E+007	403.85
213.6000	-1.2235E+007	404.133
213.5000	-1.24677E+007	404.413
213.4000	-1.18044E+007	404.696
213.3000	-1.14375E+007	404.984
213.2000	-1.18041E+007	405.265
213.1000	-1.18629E+007	405.549
213.0000	-1.1077E+007	405.838
212.9000	-1.08231E+007	406.129
212.8000	-1.12044E+007	406.412
212.7000	-1.11956E+007	406.703
212.6000	-1.1469E+007	407
212.5000	-1.1253E+007	407.296
212.4000	-1.08712E+007	407.6
212.3000	-1.11113E+007	407.897
212.2000	-1.11816E+007	408.198
212.1000	-1.1588E+007	408.5
212.0000	-1.20434E+007	408.808
211.9000	-1.20927E+007	409.121
211.8000	-1.22394E+007	409.434
211.7000	-1.26294E+007	409.752
211.6000	-1.32059E+007	410.07
211.5000	-1.31316E+007	410.394
211.4000	-1.22972E+007	410.724
211.3000	-1.13641E+007	411.058
211.2000	-9.91927E+006	411.389
211.1000	-8.73482E+006	411.723
211.0000	-8.09734E+006	412.06
210.9000	-7.52105E+006	412.389
210.8000	-7.18128E+006	412.72
210.7000	-6.9176E+006	413.059
210.6000	-7.01841E+006	413.391
210.5000	-8.76159E+006	413.719
210.4000	-9.42962E+006	414.053
210.3000	-1.01191E+007	414.398
210.2000	-1.09952E+007	414.735
210.1000	-1.11538E+007	415.085
210.0000	-1.19077E+007	415.428
209.9000	-1.26142E+007	415.77
209.8000	-1.30755E+007	416.118
209.7000	-1.24595E+007	416.476
209.6000	-1.30053E+007	416.832
209.5000	-1.38219E+007	417.186
209.4000	-1.39888E+007	417.541
209.3000	-1.40867E+007	417.898
209.2000	-1.45379E+007	418.26
209.1000	-1.45318E+007	418.626
209.0000	-1.41919E+007	418.994
208.9000	-1.40517E+007	419.366
208.8000	-1.30753E+007	419.737
208.7000	-1.15842E+007	420.11
208.6000	-1.05739E+007	420.492
208.5000	-1.00789E+007	420.877
208.4000	-9.59378E+006	421.261
208.3000	-9.28742E+006	421.648
208.2000	-9.34512E+006	422.038
208.1000	-1.03522E+007	422.423
208.0000	-1.08763E+007	422.814
207.9000	-1.13011E+007	423.208
207.8000	-1.17041E+007	423.608
207.7000	-1.19421E+007	424.004
207.6000	-1.1887E+007	424.402
207.5000	-1.12702E+007	424.8
207.4000	-1.18339E+007	425.191
207.3000	-1.21725E+007	425.581
207.2000	-1.17594E+007	425.976
207.1000	-1.21555E+007	426.367
207.0000	-1.28852E+007	426.758
206.9000	-1.3385E+007	427.148
206.8000	-1.37116E+007	427.54
206.7000	-1.37966E+007	427.937
206.6000	-1.32326E+007	428.346
206.5000	-1.22461E+007	428.758
206.4000	-1.15048E+007	429.171
206.3000	-1.16568E+007	429.578
206.2000	-1.15588E+007	429.979
206.1000	-1.14222E+007	430.379
206.0000	-1.20949E+007	430.777
205.9000	-1.25418E+007	431.183
205.8000	-1.24595E+007	431.586
205.7000	-1.31376E+007	431.993
205.6000	-1.38236E+007	432.401
205.5000	-1.40083E+007	432.818
205.4000	-1.35701E+007	433.239
205.3000	-1.34681E+007	433.67
205.2000	-1.25889E+007	434.11
205.1000	-1.16703E+007	434.552
205.0000	-1.25673E+007	434.982
204.9000	-1.27548E+007	435.414
204.8000	-1.23525E+007	435.848
204.7000	-1.17686E+007	436.29
204.6000	-1.19504E+007	436.73
204.5000	-1.0778E+007	437.18
204.4000	-1.03001E+007	437.622
204.3000	-1.01153E+007	438.071
204.2000	-8.82972E+006	438.531
204.1000	-7.54089E+006	438.992
204.0000	-6.78799E+006	439.456
203.9000	-6.13279E+006	439.921
203.8000	-5.6748E+006	440.391
203.7000	-5.93544E+006	440.865
203.6000	-6.22977E+006	441.348
203.5000	-5.23121E+006	441.832
203.4000	-4.17308E+006	442.32
203.3000	-3.61419E+006	442.815
203.2000	-2.92427E+006	443.319
203.1000	-2.9845E+006	443.822
203.0000	-2.9864E+006	444.337
202.9000	-2.7746E+006	444.851
202.8000	-3.04886E+006	445.362
202.7000	-3.59541E+006	445.881
202.6000	-3.27913E+006	446.403
202.5000	-3.23221E+006	446.932
202.4000	-3.31042E+006	447.463
202.3000	-3.51775E+006	447.999
202.2000	-2.52663E+006	448.542
202.1000	-1.28772E+006	449.084
202.0000	123807	449.635
201.9000	1.61124E+006	450.199
201.8000	2.64086E+006	450.768
201.7000	2.87875E+006	451.339
201.6000	3.0173E+006	451.918
201.5000	4.90505E+006	452.511
201.4000	5.3549E+006	453.103
201.3000	5.02617E+006	453.702
201.2000	5.49701E+006	454.309
201.1000	6.49528E+006	454.922
201.0000	6.13037E+006	455.533
200.9000	5.71E+006	456.151
200.8000	6.8442E+006	456.78
200.7000	7.30193E+006	457.415
200.6000	6.79694E+006	458.053
200.5000	7.59445E+006	458.714
200.4000	6.74167E+006	459.385
200.3000	5.58963E+006	460.064
200.2000	4.66514E+006	460.755
200.1000	5.18855E+006	461.461
200.0000	5.02789E+006	462.173
199.9000	4.29768E+006	462.89
199.8000	5.34586E+006	463.623
199.7000	6.67355E+006	464.358
199.6000	8.40968E+006	465.102
199.5000	1.06996E+007	465.855
199.4000	1.27145E+007	466.619
199.3000	1.39443E+007	467.386
199.2000	1.416E+007	468.164
199.1000	1.42962E+007	468.955
199.0000	1.42816E+007	469.765
198.9000	1.39197E+007	470.597
198.8000	1.30202E+007	471.443
198.7000	1.20761E+007	472.312
198.6000	1.13239E+007	473.2
198.5000	1.21898E+007	474.125
198.4000	1.4317E+007	475.076
198.3000	1.56645E+007	476.046
198.2000	1.59994E+007	477.039
198.1000	1.62876E+007	478.061
198.0000	1.70386E+007	479.12
197.9000	1.86116E+007	480.211
197.8000	2.00006E+007	481.34
197.7000	1.9383E+007	482.495
197.6000	1.71286E+007	483.661
197.5000	1.64243E+007	484.86
197.4000	1.74245E+007	486.078
197.3000	1.88598E+007	487.301
197.2000	1.95649E+007	488.513
197.1000	2.02308E+007	489.714
197.0000	2.05201E+007	490.903
196.9000	2.18537E+007	492.09
196.8000	2.43279E+007	493.293
196.7000	2.54269E+007	494.503
196.6000	2.5291E+007	495.737
196.5000	2.52514E+007	497.009
196.4000	2.49113E+007	498.345
196.3000	2.62511E+007	499.766
196.2000	2.74343E+007	501.257
196.1000	2.58981E+007	502.808
196.0000	2.478E+007	504.434
195.9000	2.4871E+007	506.164
195.8000	2.62096E+007	507.997
195.7000	2.7037E+007	509.951
195.6000	2.80255E+007	512.02
195.5000	2.63706E+007	514.2
195.4000	2.47532E+007	516.504
195.3000	2.57182E+007	518.923
195.2000	2.71569E+007	521.434
195.1000	2.65101E+007	523.991
195.0000	2.63022E+007	526.552
194.9000	2.57801E+007	529.056
194.8000	2.39707E+007	531.449
194.7000	2.45905E+007	533.734
194.6000	2.43101E+007	535.89
194.5000	2.3913E+007	537.955
194.4000	2.44053E+007	539.964
194.3000	2.56773E+007	541.946
194.2000	2.59807E+007	543.948
194.1000	2.62848E+007	546.056
194.0000	2.79382E+007	548.351
193.9000	2.88636E+007	550.863
193.8000	2.78659E+007	553.625
193.7000	2.71063E+007	556.681
193.6000	2.68922E+007	560.044
193.5000	2.62762E+007	563.764
193.4000	2.61763E+007	567.882
193.3000	2.70851E+007	572.41
193.2000	2.75533E+007	577.295
193.1000	2.67891E+007	582.51
193.0000	2.81644E+007	588.016
192.9000	3.29788E+007	593.733
192.8000	3.46131E+007	599.499
192.7000	3.91598E+007	605.189
192.6000	3.9764E+007	610.536
192.5000	3.78486E+007	615.43
192.4000	3.72503E+007	619.881
192.3000	3.64093E+007	623.891
192.2000	3.43515E+007	627.472
192.1000	3.01811E+007	630.701
192.0000	3.09588E+007	633.763
191.9000	3.22005E+007	636.802
191.8000	3.17677E+007	640.068
191.7000	3.51719E+007	643.818
191.6000	3.33663E+007	648.106
191.5000	3.4558E+007	653.021
191.4000	3.8209E+007	658.598
191.3000	3.97318E+007	664.891
191.2000	3.41058E+007	671.886
191.1000	3.10851E+007	679.645
191.0000	2.78111E+007	688.089
190.9000	2.34966E+007	697.093
190.8000	2.74172E+007	706.584
190.7000	3.44396E+007	716.461
190.6000	3.66289E+007	726.488
190.5000	4.6235E+007	736.535
190.4000	6.55473E+007	746.28
190.3000	7.32954E+007	755.34
190.2000	7.05825E+007	763.617
190.1000	6.88654E+007	771.175
190.0000	7.0529E+007	778.077

##### Extended Information
[Comments]
Sample name	ACE2_0.27uM
Comment
User
Division
Company	CSIR-IMTECH

[Detailed Information]
Creation date	2/26/2024 2:37 PM

Data array type	Linear data array * 2
Horizontal axis	Wavelength [nm]
Vertical axis(1)	Mol. Ellip.
Vertical axis(2)	HT [V]
Start	350 nm
End	190 nm
Data interval	0.1 nm
Data points	1601    

[Measurement Information]
Instrument Name	JASCO CD
Model Name	J-815
Serial No.	B063061168

Accessory	PTC-423S
Accessory S/N	C013945-01
  Temperature	36.14 C
  Control Sonsor	Cell
  Monitor Sensor	Cell
  Start Mode	Start immediately
  Cell Length	10 mm

Measurement date	2/26/2024 2:33 PM

Photometric Mode	CD, HT
Measure Range	350 - 190 nm
Data pitch	0.1 nm
Sensitivity	Standard
D.I.T.	1 sec
Bandwidth	1.00 nm
Start Mode	Immediately
Scanning Speed	50 nm/min
Baseline Correction	Baseline
Shutter Control	Manual
CD Detector	PMT
PMT Voltage	Auto
Accumulations	3
Concentration	0.27 umol/L

