TITLE	ACE2_seo_0.6uM
DATA TYPE	
ORIGIN	JASCO
OWNER	
DATE	24/04/08
TIME	17:15:15
SPECTROMETER/DATA SYSTEM	
LOCALE	1033
RESOLUTION	
DELTAX	-0.1
XUNITS	NANOMETERS
YUNITS	CD [mdeg]
Y2UNITS	HT [V]
FIRSTX	  350.0000
LASTX	  190.0000
NPOINTS	    1601
FIRSTY	    -0.19146
MAXY	     5.87058
MINY	    -2.51605
XYDATA
350.0000	-0.19146	490.375
349.9000	-0.0227583	489.786
349.8000	-0.208096	488.88
349.7000	-0.657694	487.956
349.6000	-0.670022	487.297
349.5000	-0.495368	486.726
349.4000	-0.488771	485.831
349.3000	-0.729094	485.18
349.2000	-0.768541	484.632
349.1000	-0.726752	483.769
349.0000	-0.650958	483.132
348.9000	-0.316372	482.585
348.8000	-0.0720174	481.732
348.7000	-0.134656	480.854
348.6000	-0.134378	480.229
348.5000	-0.118097	479.687
348.4000	-0.192983	478.807
348.3000	-0.562404	478.14
348.2000	-0.938824	477.554
348.1000	-1.15485	476.67
348.0000	-1.44309	475.997
347.9000	-1.53399	475.418
347.8000	-1.68614	474.553
347.7000	-1.70485	473.677
347.6000	-1.65513	473.051
347.5000	-1.57161	472.532
347.4000	-1.33787	471.728
347.3000	-1.43074	471.122
347.2000	-1.2191	470.619
347.1000	-1.04884	469.861
347.0000	-0.671835	469.312
346.9000	-0.46107	468.839
346.8000	-0.430869	468.073
346.7000	-0.443623	467.294
346.6000	-0.358602	466.716
346.5000	-0.2	465.95
346.4000	-0.103172	465.171
346.3000	-0.0474478	464.562
346.2000	-0.0688355	463.762
346.1000	-0.132529	462.946
346.0000	-0.0943064	462.346
345.9000	-0.110592	461.825
345.8000	-0.312043	461.014
345.7000	-0.480894	460.419
345.6000	-0.697467	459.912
345.5000	-1.04264	459.182
345.4000	-1.35244	458.648
345.3000	-1.39525	458.204
345.2000	-1.45626	457.492
345.1000	-1.50594	456.772
345.0000	-1.37757	456.251
344.9000	-1.20762	455.593
344.8000	-1.11572	454.916
344.7000	-0.868964	454.397
344.6000	-0.507549	453.714
344.5000	-0.331701	453.011
344.4000	-0.281689	452.487
344.3000	-0.271646	451.809
344.2000	-0.305028	451.124
344.1000	-0.311597	450.603
344.0000	-0.368997	449.917
343.9000	-0.283157	449.232
343.8000	-0.298627	448.733
343.7000	-0.356787	448.304
343.6000	-0.191975	447.657
343.5000	-0.0391257	447.186
343.4000	-0.00628668	446.779
343.3000	-0.0473318	446.112
343.2000	-0.0011159	445.627
343.1000	0.174435	445.217
343.0000	0.209656	444.624
342.9000	0.208005	444.013
342.8000	0.186534	443.558
342.7000	0.110042	442.929
342.6000	0.0865084	442.288
342.5000	0.152235	441.828
342.4000	0.165665	441.256
342.3000	0.0342512	440.668
342.2000	-0.0174078	440.202
342.1000	-0.178499	439.594
342.0000	-0.256963	438.987
341.9000	-0.511032	438.556
341.8000	-0.645082	437.996
341.7000	-0.891134	437.423
341.6000	-1.0364	436.999
341.5000	-1.09082	436.46
341.4000	-1.25233	435.906
341.3000	-1.24981	435.503
341.2000	-1.26216	434.937
341.1000	-1.27498	434.355
341.0000	-1.26657	433.924
340.9000	-1.09931	433.367
340.8000	-1.03501	432.792
340.7000	-0.806468	432.349
340.6000	-0.726195	431.792
340.5000	-0.664706	431.23
340.4000	-0.742675	430.817
340.3000	-0.791115	430.275
340.2000	-0.533299	429.738
340.1000	-0.457008	429.345
340.0000	-0.194719	428.86
339.9000	-0.0928852	428.365
339.8000	-0.171844	427.987
339.7000	-0.195676	427.506
339.6000	-0.0162442	427.028
339.5000	0.180243	426.691
339.4000	0.0413995	426.217
339.3000	-0.19399	425.72
339.2000	-0.424837	425.182
339.1000	-0.718721	424.694
339.0000	-0.769003	424.205
338.9000	-0.751398	423.65
338.8000	-0.862605	423.132
338.7000	-0.995329	422.604
338.6000	-0.981115	422.043
338.5000	-0.86068	421.554
338.4000	-0.761224	421.188
338.3000	-0.670794	420.734
338.2000	-0.594597	420.272
338.1000	-0.467496	419.946
338.0000	-0.455092	419.508
337.9000	-0.42982	419.068
337.8000	-0.482976	418.76
337.7000	-0.5589	418.356
337.6000	-0.526362	417.945
337.5000	-0.384262	417.632
337.4000	-0.354507	417.226
337.3000	-0.418028	416.8
337.2000	-0.369365	416.326
337.1000	-0.26761	415.912
337.0000	-0.231091	415.486
336.9000	-0.217108	415.019
336.8000	-0.207563	414.602
336.7000	-0.261657	414.181
336.6000	-0.404518	413.714
336.5000	-0.311081	413.294
336.4000	-0.201427	413.003
336.3000	-0.123546	412.598
336.2000	-0.162635	412.184
336.1000	-0.222659	411.883
336.0000	-0.200323	411.508
335.9000	-0.221756	411.112
335.8000	-0.107159	410.678
335.7000	-0.0590508	410.288
335.6000	-0.0572187	409.885
335.5000	-0.158915	409.466
335.4000	-0.163359	409.1
335.3000	-0.166985	408.728
335.2000	-0.112941	408.334
335.1000	-0.0766531	407.986
335.0000	-0.183989	407.753
334.9000	-0.353335	407.416
334.8000	-0.553429	407.058
334.7000	-0.63287	406.68
334.6000	-0.663565	406.347
334.5000	-0.585989	406.008
334.4000	-0.464577	405.598
334.3000	-0.503503	405.211
334.2000	-0.491375	404.815
334.1000	-0.435096	404.394
334.0000	-0.309631	404.033
333.9000	-0.234041	403.764
333.8000	-0.225923	403.416
333.7000	-0.268682	403.06
333.6000	-0.319257	402.675
333.5000	-0.310928	402.351
333.4000	-0.292692	402.021
333.3000	-0.297247	401.667
333.2000	-0.210166	401.362
333.1000	-0.2833	401.042
333.0000	-0.43637	400.695
332.9000	-0.516407	400.384
332.8000	-0.586678	400.034
332.7000	-0.653777	399.724
332.6000	-0.584773	399.41
332.5000	-0.465681	399.065
332.4000	-0.445012	398.758
332.3000	-0.465771	398.449
332.2000	-0.434464	398.098
332.1000	-0.42954	397.776
332.0000	-0.485352	397.433
331.9000	-0.551933	397.141
331.8000	-0.588606	396.851
331.7000	-0.799249	396.519
331.6000	-0.957035	396.216
331.5000	-1.03126	395.795
331.4000	-0.9827	395.463
331.3000	-0.778958	395.176
331.2000	-0.66435	394.857
331.1000	-0.522279	394.57
331.0000	-0.432837	394.278
330.9000	-0.272644	393.974
330.8000	-0.139223	393.707
330.7000	-0.125078	393.401
330.6000	-0.162414	393.13
330.5000	-0.34749	392.853
330.4000	-0.465489	392.553
330.3000	-0.477953	392.297
330.2000	-0.52779	391.923
330.1000	-0.574453	391.618
330.0000	-0.685995	391.342
329.9000	-0.638514	391.053
329.8000	-0.52323	390.804
329.7000	-0.351039	390.464
329.6000	-0.260036	390.198
329.5000	-0.205845	389.962
329.4000	-0.249039	389.666
329.3000	-0.224836	389.403
329.2000	-0.166589	389.042
329.1000	-0.141961	388.754
329.0000	-0.202803	388.495
328.9000	-0.298827	388.212
328.8000	-0.344641	387.955
328.7000	-0.31023	387.603
328.6000	-0.297247	387.345
328.5000	-0.286393	387.135
328.4000	-0.332123	386.872
328.3000	-0.373796	386.639
328.2000	-0.410883	386.335
328.1000	-0.347846	386.097
328.0000	-0.337433	385.884
327.9000	-0.389375	385.619
327.8000	-0.442371	385.382
327.7000	-0.434932	385.112
327.6000	-0.419862	384.933
327.5000	-0.412613	384.795
327.4000	-0.330081	384.528
327.3000	-0.239048	384.276
327.2000	-0.347196	383.965
327.1000	-0.354279	383.74
327.0000	-0.335934	383.555
326.9000	-0.34504	383.272
326.8000	-0.370744	382.985
326.7000	-0.321802	382.653
326.6000	-0.399463	382.445
326.5000	-0.464015	382.303
326.4000	-0.438229	382.039
326.3000	-0.320987	381.783
326.2000	-0.378475	381.501
326.1000	-0.38393	381.307
326.0000	-0.329422	381.001
325.9000	-0.293429	380.72
325.8000	-0.166748	380.454
325.7000	-0.0571826	380.202
325.6000	0.00865506	380.063
325.5000	0.0889682	379.772
325.4000	0.179835	379.492
325.3000	0.201875	379.209
325.2000	0.184483	379.04
325.1000	0.0924443	378.923
325.0000	0.0894231	378.642
324.9000	0.0421605	378.345
324.8000	0.0639562	378.027
324.7000	-0.00832867	377.862
324.6000	-0.0897729	377.769
324.5000	-0.147395	377.498
324.4000	-0.172726	377.22
324.3000	-0.174537	376.958
324.2000	-0.27493	376.805
324.1000	-0.418955	376.533
324.0000	-0.498499	376.264
323.9000	-0.511723	375.988
323.8000	-0.508355	375.739
323.7000	-0.375874	375.618
323.6000	-0.325642	375.353
323.5000	-0.230475	375.071
323.4000	-0.0373046	374.797
323.3000	-0.0335316	374.65
323.2000	-0.110475	374.56
323.1000	-0.208852	374.299
323.0000	-0.313791	374.014
322.9000	-0.405065	373.722
322.8000	-0.497153	373.576
322.7000	-0.607722	373.317
322.6000	-0.785642	373.033
322.5000	-0.84903	372.746
322.4000	-0.775744	372.459
322.3000	-0.789462	372.277
322.2000	-0.740597	371.976
322.1000	-0.68923	371.662
322.0000	-0.75932	371.344
321.9000	-0.680042	371.161
321.8000	-0.521373	370.87
321.7000	-0.470638	370.565
321.6000	-0.455919	370.255
321.5000	-0.360236	369.974
321.4000	-0.234774	369.832
321.3000	-0.276657	369.619
321.2000	-0.244623	369.405
321.1000	-0.28095	369.188
321.0000	-0.435917	369.11
320.9000	-0.56265	368.951
320.8000	-0.630467	368.793
320.7000	-0.66083	368.652
320.6000	-0.727052	368.5
320.5000	-0.718926	368.451
320.4000	-0.692381	368.284
320.3000	-0.695831	368.106
320.2000	-0.658688	367.932
320.1000	-0.546747	367.87
320.0000	-0.444222	367.716
319.9000	-0.472458	367.536
319.8000	-0.554725	367.342
319.7000	-0.584984	367.141
319.6000	-0.628129	366.915
319.5000	-0.651288	366.745
319.4000	-0.592528	366.561
319.3000	-0.631814	366.348
319.2000	-0.710324	366.233
319.1000	-0.728683	366.026
319.0000	-0.625348	365.811
318.9000	-0.545328	365.588
318.8000	-0.49498	365.465
318.7000	-0.434211	365.236
318.6000	-0.434269	364.998
318.5000	-0.491286	364.79
318.4000	-0.580271	364.581
318.3000	-0.636267	364.357
318.2000	-0.684291	364.187
318.1000	-0.78348	364.021
318.0000	-0.808597	363.833
317.9000	-0.757128	363.76
317.8000	-0.809553	363.626
317.7000	-0.759185	363.48
317.6000	-0.648178	363.303
317.5000	-0.51431	363.208
317.4000	-0.380085	363.038
317.3000	-0.321799	362.852
317.2000	-0.363611	362.663
317.1000	-0.468343	362.47
317.0000	-0.416056	362.218
316.9000	-0.40356	362.001
316.8000	-0.344223	361.806
316.7000	-0.416011	361.609
316.6000	-0.551302	361.405
316.5000	-0.599129	361.242
316.4000	-0.603692	361.065
316.3000	-0.585515	360.884
316.2000	-0.615368	360.716
316.1000	-0.61553	360.599
316.0000	-0.628476	360.477
315.9000	-0.670467	360.315
315.8000	-0.593625	360.218
315.7000	-0.631165	360.049
315.6000	-0.658263	359.898
315.5000	-0.627379	359.727
315.4000	-0.624248	359.619
315.3000	-0.615145	359.426
315.2000	-0.67351	359.222
315.1000	-0.706362	359.032
315.0000	-0.729685	358.85
314.9000	-0.674912	358.67
314.8000	-0.663231	358.519
314.7000	-0.673101	358.354
314.6000	-0.690663	358.19
314.5000	-0.764949	358.035
314.4000	-0.875267	357.918
314.3000	-0.970194	357.775
314.2000	-1.00426	357.635
314.1000	-1.05975	357.452
314.0000	-1.08737	357.293
313.9000	-1.10356	357.131
313.8000	-1.10886	356.977
313.7000	-1.08889	356.754
313.6000	-1.01144	356.551
313.5000	-0.84805	356.367
313.4000	-0.734582	356.189
313.3000	-0.676549	356.017
313.2000	-0.644396	355.871
313.1000	-0.617257	355.71
313.0000	-0.63509	355.551
312.9000	-0.671083	355.413
312.8000	-0.653894	355.319
312.7000	-0.666749	355.188
312.6000	-0.764558	355.053
312.5000	-0.745457	354.889
312.4000	-0.769071	354.735
312.3000	-0.793647	354.565
312.2000	-0.746703	354.403
312.1000	-0.71041	354.183
312.0000	-0.701211	353.974
311.9000	-0.748777	353.768
311.8000	-0.717438	353.528
311.7000	-0.679743	353.335
311.6000	-0.634822	353.129
311.5000	-0.462564	352.966
311.4000	-0.374285	352.764
311.3000	-0.320994	352.633
311.2000	-0.272429	352.499
311.1000	-0.209919	352.391
311.0000	-0.196153	352.274
310.9000	-0.296354	352.178
310.8000	-0.364617	352.073
310.7000	-0.454017	351.983
310.6000	-0.485581	351.86
310.5000	-0.518581	351.754
310.4000	-0.476652	351.654
310.3000	-0.464679	351.566
310.2000	-0.475524	351.478
310.1000	-0.463079	351.406
310.0000	-0.415404	351.326
309.9000	-0.399809	351.255
309.8000	-0.395592	351.189
309.7000	-0.413101	351.094
309.6000	-0.483423	351.017
309.5000	-0.608246	350.895
309.4000	-0.683085	350.8
309.3000	-0.701766	350.664
309.2000	-0.712302	350.554
309.1000	-0.764008	350.38
309.0000	-0.834776	350.232
308.9000	-0.93371	350.098
308.8000	-0.976891	349.98
308.7000	-0.995869	349.871
308.6000	-0.955081	349.777
308.5000	-0.994752	349.671
308.4000	-0.999058	349.554
308.3000	-0.971592	349.488
308.2000	-0.942985	349.383
308.1000	-0.886874	349.304
308.0000	-0.78583	349.202
307.9000	-0.707567	349.112
307.8000	-0.674812	348.97
307.7000	-0.629244	348.858
307.6000	-0.594573	348.73
307.5000	-0.698106	348.551
307.4000	-0.740711	348.421
307.3000	-0.794065	348.297
307.2000	-0.868393	348.195
307.1000	-0.902107	348.052
307.0000	-0.906051	347.952
306.9000	-0.854322	347.858
306.8000	-0.843665	347.799
306.7000	-0.827718	347.734
306.6000	-0.787003	347.65
306.5000	-0.6912	347.572
306.4000	-0.600728	347.447
306.3000	-0.613338	347.355
306.2000	-0.646097	347.233
306.1000	-0.734719	347.119
306.0000	-0.808206	346.962
305.9000	-0.821091	346.851
305.8000	-0.82409	346.768
305.7000	-0.883202	346.654
305.6000	-0.932859	346.57
305.5000	-0.958328	346.484
305.4000	-0.957166	346.432
305.3000	-0.888001	346.344
305.2000	-0.791566	346.288
305.1000	-0.663901	346.209
305.0000	-0.54513	346.082
304.9000	-0.462318	345.988
304.8000	-0.431864	345.873
304.7000	-0.399615	345.776
304.6000	-0.414877	345.637
304.5000	-0.49427	345.518
304.4000	-0.53298	345.415
304.3000	-0.641618	345.292
304.2000	-0.736066	345.219
304.1000	-0.794212	345.15
304.0000	-0.848102	345.108
303.9000	-0.911596	345.02
303.8000	-0.954454	344.935
303.7000	-0.906705	344.883
303.6000	-0.981787	344.779
303.5000	-0.97941	344.71
303.4000	-0.958461	344.62
303.3000	-0.956983	344.51
303.2000	-0.886894	344.405
303.1000	-0.794235	344.32
303.0000	-0.657301	344.276
302.9000	-0.606433	344.195
302.8000	-0.500666	344.128
302.7000	-0.386818	344.074
302.6000	-0.337424	343.996
302.5000	-0.295433	343.952
302.4000	-0.263797	343.89
302.3000	-0.284939	343.791
302.2000	-0.35212	343.698
302.1000	-0.416345	343.609
302.0000	-0.500008	343.545
301.9000	-0.576413	343.455
301.8000	-0.640746	343.376
301.7000	-0.744776	343.31
301.6000	-0.840846	343.221
301.5000	-0.86524	343.176
301.4000	-0.875279	343.131
301.3000	-0.880189	343.048
301.2000	-0.841622	342.977
301.1000	-0.775958	342.914
301.0000	-0.790007	342.879
300.9000	-0.777161	342.801
300.8000	-0.718967	342.726
300.7000	-0.733356	342.661
300.6000	-0.744311	342.576
300.5000	-0.75885	342.513
300.4000	-0.755359	342.465
300.3000	-0.760616	342.389
300.2000	-0.735761	342.32
300.1000	-0.710997	342.266
300.0000	-0.740789	342.206
299.9000	-0.82538	342.151
299.8000	-0.880148	342.095
299.7000	-0.922172	342.028
299.6000	-0.962214	341.966
299.5000	-1.00002	341.9
299.4000	-1.01322	341.846
299.3000	-1.00816	341.776
299.2000	-1.00144	341.719
299.1000	-0.953109	341.679
299.0000	-0.91017	341.613
298.9000	-0.828442	341.562
298.8000	-0.739743	341.524
298.7000	-0.749139	341.468
298.6000	-0.764971	341.423
298.5000	-0.804699	341.37
298.4000	-0.758721	341.308
298.3000	-0.750842	341.251
298.2000	-0.720669	341.192
298.1000	-0.722189	341.132
298.0000	-0.838734	341.073
297.9000	-0.8887	341.024
297.8000	-0.815613	340.954
297.7000	-0.759435	340.902
297.6000	-0.733564	340.86
297.5000	-0.722368	340.793
297.4000	-0.666431	340.748
297.3000	-0.586555	340.706
297.2000	-0.467507	340.641
297.1000	-0.403613	340.589
297.0000	-0.435383	340.538
296.9000	-0.460434	340.467
296.8000	-0.446425	340.414
296.7000	-0.44764	340.368
296.6000	-0.437334	340.333
296.5000	-0.496334	340.285
296.4000	-0.627094	340.248
296.3000	-0.647206	340.226
296.2000	-0.612133	340.189
296.1000	-0.648251	340.155
296.0000	-0.73388	340.126
295.9000	-0.790266	340.08
295.8000	-0.789522	340.017
295.7000	-0.824589	339.97
295.6000	-0.811816	339.926
295.5000	-0.880491	339.858
295.4000	-0.936037	339.781
295.3000	-0.924647	339.736
295.2000	-0.895221	339.676
295.1000	-0.912926	339.608
295.0000	-0.967878	339.567
294.9000	-0.9961	339.515
294.8000	-0.968395	339.448
294.7000	-0.900823	339.408
294.6000	-0.807397	339.374
294.5000	-0.77756	339.32
294.4000	-0.812821	339.278
294.3000	-0.802364	339.248
294.2000	-0.754101	339.199
294.1000	-0.728884	339.164
294.0000	-0.729508	339.141
293.9000	-0.79919	339.093
293.8000	-0.857618	339.059
293.7000	-0.867263	339.036
293.6000	-0.859123	338.985
293.5000	-0.892072	338.922
293.4000	-0.920141	338.891
293.3000	-0.915838	338.846
293.2000	-0.920915	338.792
293.1000	-0.87717	338.77
293.0000	-0.838667	338.726
292.9000	-0.859344	338.674
292.8000	-0.888518	338.653
292.7000	-0.799915	338.633
292.6000	-0.762015	338.596
292.5000	-0.816318	338.541
292.4000	-0.860953	338.509
292.3000	-0.853772	338.461
292.2000	-0.85064	338.415
292.1000	-0.799197	338.394
292.0000	-0.730684	338.352
291.9000	-0.755066	338.299
291.8000	-0.81637	338.258
291.7000	-0.779019	338.243
291.6000	-0.764316	338.203
291.5000	-0.816474	338.156
291.4000	-0.856961	338.131
291.3000	-0.813918	338.079
291.2000	-0.870139	338.009
291.1000	-0.918531	337.942
291.0000	-0.901356	337.892
290.9000	-0.928585	337.816
290.8000	-0.935878	337.725
290.7000	-0.894066	337.627
290.6000	-0.867126	337.52
290.5000	-0.86256	337.39
290.4000	-0.843801	337.257
290.3000	-0.83168	337.137
290.2000	-0.752785	336.993
290.1000	-0.719078	336.837
290.0000	-0.748815	336.697
289.9000	-0.796503	336.599
289.8000	-0.868572	336.51
289.7000	-0.899327	336.447
289.6000	-0.985161	336.419
289.5000	-1.04085	336.432
289.4000	-1.08596	336.471
289.3000	-1.13077	336.54
289.2000	-1.13952	336.632
289.1000	-1.03392	336.745
289.0000	-0.938721	336.85
288.9000	-0.918768	336.95
288.8000	-0.876111	337.043
288.7000	-0.79588	337.127
288.6000	-0.711335	337.188
288.5000	-0.723497	337.235
288.4000	-0.65776	337.264
288.3000	-0.668809	337.282
288.2000	-0.722367	337.282
288.1000	-0.754045	337.274
288.0000	-0.78283	337.256
287.9000	-0.824834	337.221
287.8000	-0.815948	337.201
287.7000	-0.77209	337.176
287.6000	-0.760634	337.155
287.5000	-0.724665	337.119
287.4000	-0.670435	337.097
287.3000	-0.601021	337.082
287.2000	-0.535962	337.066
287.1000	-0.480849	337.055
287.0000	-0.510993	337.016
286.9000	-0.568813	336.993
286.8000	-0.628262	336.977
286.7000	-0.604268	336.961
286.6000	-0.599208	336.936
286.5000	-0.605774	336.926
286.4000	-0.614795	336.913
286.3000	-0.660395	336.907
286.2000	-0.713362	336.9
286.1000	-0.72862	336.89
286.0000	-0.629605	336.896
285.9000	-0.622418	336.891
285.8000	-0.668949	336.889
285.7000	-0.718698	336.863
285.6000	-0.742375	336.841
285.5000	-0.711819	336.844
285.4000	-0.726878	336.84
285.3000	-0.731795	336.841
285.2000	-0.854493	336.81
285.1000	-0.91742	336.791
285.0000	-0.893494	336.799
284.9000	-0.840917	336.796
284.8000	-0.829814	336.798
284.7000	-0.857352	336.772
284.6000	-0.827943	336.757
284.5000	-0.811403	336.765
284.4000	-0.764186	336.774
284.3000	-0.740804	336.786
284.2000	-0.744621	336.763
284.1000	-0.811627	336.751
284.0000	-0.854347	336.73
283.9000	-0.896092	336.732
283.8000	-0.974118	336.74
283.7000	-1.05295	336.725
283.6000	-1.13568	336.708
283.5000	-1.21246	336.692
283.4000	-1.23786	336.688
283.3000	-1.22706	336.705
283.2000	-1.24506	336.723
283.1000	-1.24326	336.731
283.0000	-1.2477	336.722
282.9000	-1.24897	336.715
282.8000	-1.16848	336.712
282.7000	-1.08456	336.731
282.6000	-1.01747	336.748
282.5000	-1.09513	336.744
282.4000	-1.08815	336.737
282.3000	-1.07333	336.735
282.2000	-1.07429	336.733
282.1000	-0.972721	336.756
282.0000	-0.899331	336.779
281.9000	-0.879823	336.787
281.8000	-0.894812	336.785
281.7000	-0.843097	336.784
281.6000	-0.781346	336.784
281.5000	-0.740651	336.785
281.4000	-0.68492	336.809
281.3000	-0.642766	336.818
281.2000	-0.64881	336.816
281.1000	-0.640482	336.812
281.0000	-0.579973	336.81
280.9000	-0.528448	336.81
280.8000	-0.530051	336.805
280.7000	-0.519471	336.806
280.6000	-0.518527	336.809
280.5000	-0.511896	336.804
280.4000	-0.505142	336.796
280.3000	-0.501794	336.787
280.2000	-0.590359	336.779
280.1000	-0.635719	336.77
280.0000	-0.723515	336.758
279.9000	-0.770303	336.743
279.8000	-0.826414	336.717
279.7000	-0.924863	336.705
279.6000	-0.958658	336.699
279.5000	-0.976862	336.697
279.4000	-0.880748	336.703
279.3000	-0.852523	336.703
279.2000	-0.746262	336.708
279.1000	-0.702157	336.715
279.0000	-0.665965	336.724
278.9000	-0.617212	336.72
278.8000	-0.585954	336.733
278.7000	-0.63677	336.743
278.6000	-0.720686	336.752
278.5000	-0.76698	336.764
278.4000	-0.827978	336.775
278.3000	-0.863028	336.791
278.2000	-0.836742	336.807
278.1000	-0.740964	336.823
278.0000	-0.686824	336.827
277.9000	-0.610552	336.825
277.8000	-0.490044	336.828
277.7000	-0.421008	336.828
277.6000	-0.400261	336.849
277.5000	-0.370137	336.871
277.4000	-0.380865	336.892
277.3000	-0.425199	336.911
277.2000	-0.480201	336.929
277.1000	-0.522337	336.949
277.0000	-0.543661	336.971
276.9000	-0.571496	336.993
276.8000	-0.612497	336.998
276.7000	-0.648529	336.999
276.6000	-0.690666	337.002
276.5000	-0.717005	337.01
276.4000	-0.734649	337.014
276.3000	-0.752796	337.018
276.2000	-0.778891	337.018
276.1000	-0.858842	337.018
276.0000	-0.856381	337.043
275.9000	-0.831675	337.066
275.8000	-0.739483	337.088
275.7000	-0.735409	337.109
275.6000	-0.747424	337.135
275.5000	-0.674791	337.163
275.4000	-0.681392	337.188
275.3000	-0.669732	337.213
275.2000	-0.677124	337.223
275.1000	-0.721362	337.229
275.0000	-0.874189	337.235
274.9000	-0.892777	337.247
274.8000	-0.828526	337.258
274.7000	-0.908683	337.26
274.6000	-0.937065	337.265
274.5000	-0.870468	337.277
274.4000	-0.84888	337.284
274.3000	-0.806096	337.293
274.2000	-0.68137	337.302
274.1000	-0.65067	337.307
274.0000	-0.676605	337.31
273.9000	-0.700167	337.32
273.8000	-0.68886	337.337
273.7000	-0.703292	337.356
273.6000	-0.791604	337.371
273.5000	-0.786884	337.39
273.4000	-0.844424	337.409
273.3000	-0.858353	337.435
273.2000	-0.91978	337.455
273.1000	-0.931761	337.476
273.0000	-0.996709	337.493
272.9000	-1.05125	337.512
272.8000	-1.06757	337.53
272.7000	-1.09941	337.551
272.6000	-1.09066	337.569
272.5000	-1.07995	337.588
272.4000	-1.03753	337.606
272.3000	-0.989032	337.625
272.2000	-0.946877	337.643
272.1000	-0.844253	337.662
272.0000	-0.817878	337.682
271.9000	-0.717558	337.702
271.8000	-0.6241	337.719
271.7000	-0.58393	337.735
271.6000	-0.532279	337.747
271.5000	-0.5643	337.755
271.4000	-0.536608	337.772
271.3000	-0.563588	337.783
271.2000	-0.556328	337.788
271.1000	-0.529994	337.801
271.0000	-0.579734	337.815
270.9000	-0.612465	337.815
270.8000	-0.667127	337.813
270.7000	-0.605426	337.818
270.6000	-0.595199	337.818
270.5000	-0.565675	337.813
270.4000	-0.573594	337.809
270.3000	-0.562054	337.8
270.2000	-0.5478	337.792
270.1000	-0.526468	337.79
270.0000	-0.516394	337.792
269.9000	-0.584237	337.797
269.8000	-0.661696	337.806
269.7000	-0.71758	337.826
269.6000	-0.688599	337.854
269.5000	-0.700121	337.878
269.4000	-0.774653	337.888
269.3000	-0.713712	337.908
269.2000	-0.649262	337.935
269.1000	-0.592246	337.97
269.0000	-0.598706	337.999
268.9000	-0.544703	338.029
268.8000	-0.523233	338.05
268.7000	-0.498222	338.081
268.6000	-0.408915	338.121
268.5000	-0.413894	338.171
268.4000	-0.444978	338.225
268.3000	-0.441774	338.263
268.2000	-0.350478	338.304
268.1000	-0.319805	338.332
268.0000	-0.265404	338.376
267.9000	-0.222182	338.421
267.8000	-0.249572	338.481
267.7000	-0.261045	338.536
267.6000	-0.279742	338.585
267.5000	-0.350761	338.629
267.4000	-0.413	338.66
267.3000	-0.488627	338.705
267.2000	-0.580935	338.743
267.1000	-0.630584	338.792
267.0000	-0.650875	338.832
266.9000	-0.665266	338.871
266.8000	-0.665011	338.904
266.7000	-0.628932	338.936
266.6000	-0.613469	338.993
266.5000	-0.576384	339.059
266.4000	-0.553664	339.127
266.3000	-0.5972	339.182
266.2000	-0.621712	339.235
266.1000	-0.679977	339.281
266.0000	-0.736968	339.317
265.9000	-0.810836	339.37
265.8000	-0.782426	339.424
265.7000	-0.786262	339.473
265.6000	-0.813689	339.52
265.5000	-0.74211	339.574
265.4000	-0.723074	339.615
265.3000	-0.70727	339.658
265.2000	-0.712469	339.719
265.1000	-0.713766	339.784
265.0000	-0.720087	339.851
264.9000	-0.743963	339.921
264.8000	-0.752835	339.97
264.7000	-0.814449	340.024
264.6000	-0.912922	340.081
264.5000	-0.958308	340.15
264.4000	-0.998444	340.223
264.3000	-0.954379	340.286
264.2000	-0.945195	340.351
264.1000	-0.965582	340.415
264.0000	-0.942445	340.493
263.9000	-0.941709	340.571
263.8000	-0.889509	340.639
263.7000	-0.827632	340.712
263.6000	-0.755359	340.793
263.5000	-0.773604	340.88
263.4000	-0.780984	340.971
263.3000	-0.733026	341.039
263.2000	-0.673086	341.11
263.1000	-0.629772	341.188
263.0000	-0.605592	341.279
262.9000	-0.666538	341.359
262.8000	-0.73072	341.432
262.7000	-0.74802	341.495
262.6000	-0.788208	341.552
262.5000	-0.780745	341.626
262.4000	-0.772969	341.696
262.3000	-0.747585	341.769
262.2000	-0.723607	341.839
262.1000	-0.612289	341.921
262.0000	-0.569779	341.992
261.9000	-0.546031	342.07
261.8000	-0.51357	342.141
261.7000	-0.510119	342.202
261.6000	-0.54384	342.28
261.5000	-0.577879	342.361
261.4000	-0.600117	342.435
261.3000	-0.594382	342.495
261.2000	-0.557569	342.574
261.1000	-0.541326	342.655
261.0000	-0.52926	342.744
260.9000	-0.491699	342.834
260.8000	-0.479472	342.926
260.7000	-0.393351	343.015
260.6000	-0.373563	343.092
260.5000	-0.380439	343.182
260.4000	-0.482028	343.274
260.3000	-0.473794	343.358
260.2000	-0.432294	343.43
260.1000	-0.369782	343.511
260.0000	-0.348951	343.594
259.9000	-0.456329	343.658
259.8000	-0.531256	343.74
259.7000	-0.546735	343.833
259.6000	-0.48602	343.908
259.5000	-0.430192	343.986
259.4000	-0.420726	344.072
259.3000	-0.523378	344.148
259.2000	-0.587639	344.227
259.1000	-0.578886	344.315
259.0000	-0.520814	344.395
258.9000	-0.481067	344.467
258.8000	-0.545348	344.55
258.7000	-0.653342	344.627
258.6000	-0.690682	344.715
258.5000	-0.649474	344.814
258.4000	-0.600091	344.898
258.3000	-0.559415	344.979
258.2000	-0.563052	345.067
258.1000	-0.586097	345.153
258.0000	-0.556983	345.248
257.9000	-0.466929	345.352
257.8000	-0.416035	345.443
257.7000	-0.461456	345.528
257.6000	-0.52262	345.628
257.5000	-0.590583	345.721
257.4000	-0.642005	345.82
257.3000	-0.639099	345.918
257.2000	-0.578666	346.019
257.1000	-0.572982	346.119
257.0000	-0.578316	346.222
256.9000	-0.581056	346.328
256.8000	-0.57005	346.415
256.7000	-0.543544	346.511
256.6000	-0.49879	346.606
256.5000	-0.420052	346.699
256.4000	-0.410321	346.793
256.3000	-0.347491	346.875
256.2000	-0.25859	346.949
256.1000	-0.192841	347.023
256.0000	-0.139989	347.092
255.9000	-0.191952	347.165
255.8000	-0.204903	347.238
255.7000	-0.340629	347.326
255.6000	-0.437263	347.419
255.5000	-0.534542	347.504
255.4000	-0.66174	347.592
255.3000	-0.735953	347.67
255.2000	-0.716866	347.759
255.1000	-0.608116	347.855
255.0000	-0.557395	347.957
254.9000	-0.469494	348.034
254.8000	-0.379808	348.097
254.7000	-0.355402	348.159
254.6000	-0.309853	348.23
254.5000	-0.308841	348.319
254.4000	-0.327799	348.401
254.3000	-0.364301	348.483
254.2000	-0.377825	348.554
254.1000	-0.354186	348.646
254.0000	-0.368595	348.745
253.9000	-0.342174	348.858
253.8000	-0.370411	348.962
253.7000	-0.382349	349.06
253.6000	-0.380653	349.155
253.5000	-0.415843	349.258
253.4000	-0.435283	349.355
253.3000	-0.410734	349.455
253.2000	-0.401602	349.556
253.1000	-0.39044	349.657
253.0000	-0.401383	349.743
252.9000	-0.420883	349.83
252.8000	-0.469881	349.917
252.7000	-0.509603	350.002
252.6000	-0.527986	350.087
252.5000	-0.520971	350.173
252.4000	-0.583054	350.241
252.3000	-0.660357	350.301
252.2000	-0.667788	350.365
252.1000	-0.605238	350.443
252.0000	-0.489639	350.523
251.9000	-0.396263	350.602
251.8000	-0.327679	350.691
251.7000	-0.350779	350.773
251.6000	-0.317214	350.868
251.5000	-0.318013	350.963
251.4000	-0.318472	351.065
251.3000	-0.32431	351.168
251.2000	-0.362697	351.266
251.1000	-0.41648	351.369
251.0000	-0.495497	351.466
250.9000	-0.551876	351.577
250.8000	-0.573065	351.684
250.7000	-0.545533	351.798
250.6000	-0.485596	351.905
250.5000	-0.426693	351.997
250.4000	-0.420345	352.089
250.3000	-0.399916	352.178
250.2000	-0.376161	352.276
250.1000	-0.285349	352.361
250.0000	-0.23758	352.442
249.9000	-0.203373	352.525
249.8000	-0.178855	352.608
249.7000	-0.213243	352.709
249.6000	-0.167801	352.806
249.5000	-0.134893	352.896
249.4000	-0.108212	352.989
249.3000	-0.160825	353.086
249.2000	-0.222739	353.18
249.1000	-0.265327	353.278
249.0000	-0.271262	353.374
248.9000	-0.26964	353.459
248.8000	-0.232518	353.553
248.7000	-0.240488	353.651
248.6000	-0.247766	353.744
248.5000	-0.192793	353.844
248.4000	-0.0936731	353.942
248.3000	-0.0326582	354.026
248.2000	-0.0379855	354.117
248.1000	-0.0638054	354.219
248.0000	-0.0903973	354.318
247.9000	-0.0898745	354.422
247.8000	-0.0583548	354.522
247.7000	-0.10053	354.605
247.6000	-0.182797	354.694
247.5000	-0.21224	354.798
247.4000	-0.264231	354.894
247.3000	-0.321836	354.972
247.2000	-0.444047	355.044
247.1000	-0.565631	355.109
247.0000	-0.656744	355.18
246.9000	-0.680594	355.267
246.8000	-0.698117	355.351
246.7000	-0.757121	355.418
246.6000	-0.748053	355.485
246.5000	-0.705094	355.571
246.4000	-0.599045	355.672
246.3000	-0.494147	355.775
246.2000	-0.43276	355.871
246.1000	-0.500954	355.962
246.0000	-0.460088	356.056
245.9000	-0.406725	356.156
245.8000	-0.37806	356.264
245.7000	-0.333269	356.374
245.6000	-0.3251	356.477
245.5000	-0.425152	356.572
245.4000	-0.422571	356.68
245.3000	-0.392796	356.784
245.2000	-0.354982	356.901
245.1000	-0.362577	357.014
245.0000	-0.403766	357.119
244.9000	-0.599521	357.215
244.8000	-0.701629	357.311
244.7000	-0.802995	357.418
244.6000	-0.947576	357.525
244.5000	-1.12389	357.632
244.4000	-1.16957	357.737
244.3000	-1.25207	357.837
244.2000	-1.24359	357.94
244.1000	-1.14192	358.052
244.0000	-1.08363	358.16
243.9000	-0.983779	358.268
243.8000	-0.845366	358.372
243.7000	-0.669752	358.481
243.6000	-0.600616	358.588
243.5000	-0.578872	358.697
243.4000	-0.54211	358.823
243.3000	-0.513923	358.949
243.2000	-0.459871	359.073
243.1000	-0.452055	359.193
243.0000	-0.445518	359.312
242.9000	-0.50223	359.428
242.8000	-0.520721	359.54
242.7000	-0.567673	359.65
242.6000	-0.616603	359.754
242.5000	-0.566015	359.851
242.4000	-0.511319	359.953
242.3000	-0.538369	360.061
242.2000	-0.461399	360.177
242.1000	-0.451769	360.296
242.0000	-0.42932	360.421
241.9000	-0.473175	360.551
241.8000	-0.408765	360.678
241.7000	-0.439004	360.8
241.6000	-0.585973	360.922
241.5000	-0.550604	361.048
241.4000	-0.568319	361.165
241.3000	-0.609268	361.282
241.2000	-0.573847	361.4
241.1000	-0.556401	361.516
241.0000	-0.477027	361.639
240.9000	-0.440184	361.766
240.8000	-0.399086	361.892
240.7000	-0.40007	362.012
240.6000	-0.500683	362.138
240.5000	-0.589814	362.27
240.4000	-0.68683	362.397
240.3000	-0.657072	362.526
240.2000	-0.692034	362.656
240.1000	-0.773204	362.793
240.0000	-0.810742	362.941
239.9000	-0.771493	363.099
239.8000	-0.680297	363.254
239.7000	-0.508683	363.402
239.6000	-0.391851	363.552
239.5000	-0.310627	363.71
239.4000	-0.281644	363.871
239.3000	-0.187042	364.036
239.2000	-0.125316	364.194
239.1000	-0.174866	364.342
239.0000	-0.283973	364.49
238.9000	-0.43638	364.646
238.8000	-0.623307	364.802
238.7000	-0.71147	364.959
238.6000	-0.765764	365.11
238.5000	-0.89478	365.254
238.4000	-0.99405	365.396
238.3000	-1.00584	365.543
238.2000	-0.966351	365.697
238.1000	-0.979151	365.85
238.0000	-0.940092	366.006
237.9000	-0.890016	366.165
237.8000	-0.881875	366.318
237.7000	-0.791396	366.476
237.6000	-0.765206	366.637
237.5000	-0.668409	366.806
237.4000	-0.621258	366.978
237.3000	-0.601547	367.153
237.2000	-0.517469	367.332
237.1000	-0.495341	367.495
237.0000	-0.473082	367.663
236.9000	-0.457991	367.837
236.8000	-0.503869	368.008
236.7000	-0.525528	368.182
236.6000	-0.603259	368.344
236.5000	-0.621887	368.504
236.4000	-0.691602	368.663
236.3000	-0.681843	368.837
236.2000	-0.677509	369.013
236.1000	-0.681579	369.184
236.0000	-0.713895	369.359
235.9000	-0.65713	369.537
235.8000	-0.688101	369.713
235.7000	-0.674368	369.89
235.6000	-0.628901	370.065
235.5000	-0.540539	370.24
235.4000	-0.45688	370.42
235.3000	-0.482512	370.6
235.2000	-0.456081	370.781
235.1000	-0.638988	370.952
235.0000	-0.705096	371.13
234.9000	-0.685067	371.314
234.8000	-0.771014	371.502
234.7000	-0.889503	371.697
234.6000	-0.956301	371.891
234.5000	-0.895821	372.084
234.4000	-0.90793	372.274
234.3000	-0.844613	372.467
234.2000	-0.787709	372.661
234.1000	-0.873698	372.854
234.0000	-0.823416	373.047
233.9000	-0.768007	373.234
233.8000	-0.851933	373.415
233.7000	-0.935686	373.597
233.6000	-0.93397	373.789
233.5000	-0.928114	373.984
233.4000	-0.943359	374.176
233.3000	-0.958559	374.373
233.2000	-1.07864	374.57
233.1000	-1.1811	374.759
233.0000	-1.1493	374.958
232.9000	-1.18985	375.153
232.8000	-1.32393	375.347
232.7000	-1.33005	375.546
232.6000	-1.33005	375.746
232.5000	-1.24656	375.951
232.4000	-1.1512	376.148
232.3000	-1.12061	376.353
232.2000	-1.17058	376.552
232.1000	-1.24607	376.754
232.0000	-1.24967	376.953
231.9000	-1.22533	377.155
231.8000	-1.19703	377.352
231.7000	-1.24688	377.547
231.6000	-1.33007	377.745
231.5000	-1.34041	377.935
231.4000	-1.29076	378.134
231.3000	-1.16572	378.334
231.2000	-1.14332	378.532
231.1000	-1.20544	378.724
231.0000	-1.33736	378.913
230.9000	-1.38399	379.107
230.8000	-1.31804	379.301
230.7000	-1.30114	379.502
230.6000	-1.27207	379.701
230.5000	-1.24652	379.907
230.4000	-1.27317	380.112
230.3000	-1.30251	380.324
230.2000	-1.25072	380.542
230.1000	-1.26263	380.758
230.0000	-1.23856	380.977
229.9000	-1.2777	381.189
229.8000	-1.42089	381.398
229.7000	-1.39389	381.605
229.6000	-1.38483	381.81
229.5000	-1.33989	382.01
229.4000	-1.25845	382.203
229.3000	-1.18796	382.393
229.2000	-1.32294	382.57
229.1000	-1.39058	382.749
229.0000	-1.29656	382.943
228.9000	-1.32996	383.134
228.8000	-1.36373	383.329
228.7000	-1.38351	383.538
228.6000	-1.44256	383.753
228.5000	-1.47336	383.978
228.4000	-1.41738	384.212
228.3000	-1.44661	384.453
228.2000	-1.46891	384.692
228.1000	-1.53348	384.939
228.0000	-1.52858	385.188
227.9000	-1.5209	385.429
227.8000	-1.57332	385.663
227.7000	-1.67096	385.903
227.6000	-1.68735	386.141
227.5000	-1.53334	386.382
227.4000	-1.42424	386.613
227.3000	-1.34946	386.845
227.2000	-1.23682	387.075
227.1000	-1.13101	387.305
227.0000	-1.05118	387.534
226.9000	-0.966512	387.753
226.8000	-0.971645	387.972
226.7000	-1.00627	388.193
226.6000	-0.97939	388.419
226.5000	-1.00965	388.639
226.4000	-1.11909	388.854
226.3000	-1.2642	389.067
226.2000	-1.44696	389.284
226.1000	-1.50044	389.51
226.0000	-1.52714	389.733
225.9000	-1.57794	389.951
225.8000	-1.67698	390.167
225.7000	-1.77481	390.382
225.6000	-1.91573	390.597
225.5000	-1.97246	390.814
225.4000	-1.93899	391.034
225.3000	-1.9291	391.259
225.2000	-1.94381	391.486
225.1000	-1.90855	391.712
225.0000	-1.81295	391.939
224.9000	-1.79564	392.164
224.8000	-1.68497	392.393
224.7000	-1.56263	392.621
224.6000	-1.56588	392.847
224.5000	-1.55105	393.07
224.4000	-1.59305	393.282
224.3000	-1.55291	393.5
224.2000	-1.6497	393.716
224.1000	-1.60419	393.938
224.0000	-1.5508	394.157
223.9000	-1.54828	394.373
223.8000	-1.5993	394.592
223.7000	-1.67885	394.806
223.6000	-1.63005	395.029
223.5000	-1.54143	395.256
223.4000	-1.49983	395.48
223.3000	-1.70386	395.689
223.2000	-1.9399	395.896
223.1000	-2.11286	396.112
223.0000	-2.21456	396.326
222.9000	-2.25147	396.543
222.8000	-2.31099	396.756
222.7000	-2.45037	396.969
222.6000	-2.51605	397.18
222.5000	-2.37063	397.402
222.4000	-2.24749	397.622
222.3000	-2.21382	397.837
222.2000	-2.13191	398.055
222.1000	-2.09443	398.271
222.0000	-2.15673	398.484
221.9000	-2.06006	398.696
221.8000	-2.0398	398.907
221.7000	-2.11224	399.12
221.6000	-2.09	399.338
221.5000	-1.9926	399.561
221.4000	-1.8354	399.784
221.3000	-1.74725	400.004
221.2000	-1.55509	400.231
221.1000	-1.50705	400.452
221.0000	-1.52282	400.669
220.9000	-1.49824	400.884
220.8000	-1.54273	401.099
220.7000	-1.66074	401.301
220.6000	-1.69648	401.509
220.5000	-1.60976	401.729
220.4000	-1.5231	401.943
220.3000	-1.57428	402.156
220.2000	-1.61146	402.375
220.1000	-1.71722	402.589
220.0000	-1.82983	402.803
219.9000	-1.8349	403.027
219.8000	-1.82403	403.255
219.7000	-1.99756	403.468
219.6000	-2.24756	403.676
219.5000	-2.45087	403.888
219.4000	-2.48066	404.107
219.3000	-2.41481	404.328
219.2000	-2.37423	404.548
219.1000	-2.27684	404.77
219.0000	-2.22308	404.99
218.9000	-2.20871	405.205
218.8000	-2.25436	405.419
218.7000	-2.2577	405.631
218.6000	-2.26844	405.845
218.5000	-2.20422	406.058
218.4000	-2.11758	406.277
218.3000	-2.01363	406.49
218.2000	-2.02528	406.702
218.1000	-2.04465	406.915
218.0000	-1.83689	407.141
217.9000	-1.73586	407.366
217.8000	-1.73961	407.579
217.7000	-1.75194	407.796
217.6000	-1.78731	408.008
217.5000	-1.79803	408.229
217.4000	-1.79301	408.446
217.3000	-1.64949	408.667
217.2000	-1.57836	408.888
217.1000	-1.52871	409.1
217.0000	-1.37359	409.32
216.9000	-1.33282	409.539
216.8000	-1.36859	409.757
216.7000	-1.41457	409.968
216.6000	-1.56231	410.181
216.5000	-1.7871	410.393
216.4000	-2.01491	410.597
216.3000	-2.0413	410.808
216.2000	-2.14553	411.023
216.1000	-2.32672	411.234
216.0000	-2.38147	411.449
215.9000	-2.26156	411.67
215.8000	-2.01741	411.892
215.7000	-1.85769	412.112
215.6000	-1.70501	412.337
215.5000	-1.67307	412.562
215.4000	-1.59603	412.789
215.3000	-1.53248	413.013
215.2000	-1.42209	413.236
215.1000	-1.51575	413.465
215.0000	-1.79587	413.686
214.9000	-2.02066	413.91
214.8000	-2.03433	414.141
214.7000	-2.06621	414.372
214.6000	-2.10533	414.605
214.5000	-1.95436	414.846
214.4000	-1.84624	415.084
214.3000	-1.82053	415.315
214.2000	-1.64559	415.551
214.1000	-1.47492	415.788
214.0000	-1.51802	416.017
213.9000	-1.60144	416.248
213.8000	-1.62724	416.479
213.7000	-1.6636	416.714
213.6000	-1.80379	416.944
213.5000	-1.6955	417.187
213.4000	-1.67278	417.428
213.3000	-1.68677	417.673
213.2000	-1.67856	417.921
213.1000	-1.51575	418.172
213.0000	-1.49342	418.421
212.9000	-1.60491	418.666
212.8000	-1.55962	418.914
212.7000	-1.57749	419.159
212.6000	-1.74091	419.401
212.5000	-1.90929	419.641
212.4000	-1.97267	419.889
212.3000	-2.10155	420.132
212.2000	-2.29269	420.374
212.1000	-2.30359	420.626
212.0000	-2.39385	420.885
211.9000	-2.49822	421.146
211.8000	-2.48551	421.407
211.7000	-2.39369	421.674
211.6000	-2.39986	421.94
211.5000	-2.30234	422.208
211.4000	-2.09388	422.485
211.3000	-1.86054	422.763
211.2000	-1.8391	423.028
211.1000	-1.82302	423.296
211.0000	-1.818	423.57
210.9000	-1.84849	423.845
210.8000	-1.63366	424.129
210.7000	-1.50242	424.416
210.6000	-1.45342	424.699
210.5000	-1.46197	424.983
210.4000	-1.50297	425.269
210.3000	-1.51276	425.561
210.2000	-1.56974	425.847
210.1000	-1.52721	426.142
210.0000	-1.67283	426.429
209.9000	-1.99033	426.71
209.8000	-2.11846	426.993
209.7000	-2.18676	427.283
209.6000	-2.14704	427.576
209.5000	-2.12932	427.871
209.4000	-2.12488	428.166
209.3000	-2.03324	428.461
209.2000	-2.03918	428.759
209.1000	-1.92159	429.061
209.0000	-1.96431	429.358
208.9000	-2.07659	429.657
208.8000	-2.16222	429.953
208.7000	-2.20199	430.253
208.6000	-2.27297	430.558
208.5000	-2.3788	430.863
208.4000	-2.3731	431.17
208.3000	-2.2235	431.487
208.2000	-2.15046	431.804
208.1000	-2.28082	432.112
208.0000	-2.33779	432.424
207.9000	-2.30168	432.739
207.8000	-1.95403	433.068
207.7000	-1.58593	433.393
207.6000	-1.48623	433.714
207.5000	-1.49403	434.025
207.4000	-1.56104	434.331
207.3000	-1.33752	434.649
207.2000	-1.28531	434.961
207.1000	-1.30314	435.27
207.0000	-1.44784	435.575
206.9000	-1.83718	435.87
206.8000	-1.92152	436.174
206.7000	-2.06368	436.479
206.6000	-2.15927	436.788
206.5000	-2.01868	437.106
206.4000	-1.80728	437.43
206.3000	-1.57843	437.755
206.2000	-1.61373	438.064
206.1000	-1.58184	438.372
206.0000	-1.58645	438.679
205.9000	-1.68762	438.983
205.8000	-1.58795	439.294
205.7000	-1.6675	439.601
205.6000	-1.94131	439.904
205.5000	-2.14884	440.211
205.4000	-2.20811	440.527
205.3000	-2.23035	440.85
205.2000	-2.21875	441.177
205.1000	-2.07667	441.512
205.0000	-1.97139	441.848
204.9000	-1.93788	442.181
204.8000	-1.93907	442.515
204.7000	-1.87273	442.855
204.6000	-1.70408	443.198
204.5000	-1.61543	443.541
204.4000	-1.44889	443.887
204.3000	-1.48532	444.23
204.2000	-1.4657	444.576
204.1000	-1.2862	444.93
204.0000	-1.13955	445.285
203.9000	-1.04526	445.635
203.8000	-1.11289	445.982
203.7000	-1.21979	446.33
203.6000	-1.20306	446.686
203.5000	-1.12022	447.045
203.4000	-0.993342	447.408
203.3000	-1.01599	447.77
203.2000	-1.07535	448.136
203.1000	-1.14112	448.504
203.0000	-1.02856	448.887
202.9000	-0.865075	449.271
202.8000	-0.741747	449.652
202.7000	-0.789332	450.034
202.6000	-0.851236	450.417
202.5000	-0.961508	450.794
202.4000	-0.959496	451.175
202.3000	-0.800265	451.565
202.2000	-0.544952	451.962
202.1000	-0.499751	452.356
202.0000	-0.518328	452.753
201.9000	-0.434445	453.16
201.8000	-0.237399	453.575
201.7000	0.0063377	453.999
201.6000	0.0654564	454.426
201.5000	0.00480579	454.853
201.4000	-0.201073	455.276
201.3000	-0.344312	455.707
201.2000	-0.227	456.152
201.1000	-0.0273413	456.603
201.0000	-0.133705	457.05
200.9000	-0.172534	457.507
200.8000	-0.306661	457.965
200.7000	-0.377963	458.436
200.6000	-0.453064	458.919
200.5000	-0.264389	459.423
200.4000	-0.0770969	459.936
200.3000	-0.0383965	460.452
200.2000	-0.0425255	460.976
200.1000	-0.177867	461.496
200.0000	-0.218286	462.027
199.9000	0.0352863	462.565
199.8000	0.31944	463.103
199.7000	0.388869	463.626
199.6000	0.237761	464.144
199.5000	0.217379	464.669
199.4000	0.313043	465.198
199.3000	0.445708	465.738
199.2000	0.691686	466.291
199.1000	0.822642	466.849
199.0000	0.980537	467.417
198.9000	1.12418	468.004
198.8000	1.29979	468.61
198.7000	1.40721	469.238
198.6000	1.35347	469.875
198.5000	1.41185	470.533
198.4000	1.35434	471.196
198.3000	1.49433	471.886
198.2000	1.4336	472.598
198.1000	1.14567	473.334
198.0000	0.916338	474.101
197.9000	1.15862	474.898
197.8000	1.2348	475.705
197.7000	1.27481	476.531
197.6000	1.42103	477.367
197.5000	1.31348	478.198
197.4000	1.19696	479.013
197.3000	1.275	479.811
197.2000	1.37002	480.566
197.1000	1.30545	481.289
197.0000	1.11831	481.996
196.9000	1.33992	482.707
196.8000	1.43557	483.421
196.7000	1.62258	484.152
196.6000	1.70311	484.908
196.5000	1.79247	485.704
196.4000	1.80422	486.556
196.3000	1.81968	487.475
196.2000	1.92205	488.455
196.1000	1.63743	489.481
196.0000	1.26822	490.574
195.9000	1.36674	491.765
195.8000	1.35214	493.059
195.7000	1.37515	494.474
195.6000	1.71478	496.015
195.5000	2.26545	497.66
195.4000	2.26708	499.362
195.3000	2.66425	501.122
195.2000	3.20972	502.906
195.1000	3.33193	504.644
195.0000	3.46004	506.279
194.9000	3.5301	507.757
194.8000	3.44267	509.053
194.7000	3.18121	510.183
194.6000	3.34079	511.215
194.5000	3.35674	512.158
194.4000	3.29304	513.059
194.3000	3.14271	513.96
194.2000	3.23749	514.952
194.1000	3.32852	516.079
194.0000	3.68176	517.413
193.9000	3.86688	518.971
193.8000	3.7623	520.753
193.7000	3.54786	522.805
193.6000	3.65045	525.17
193.5000	3.62652	527.883
193.4000	3.58602	530.968
193.3000	3.66763	534.42
193.2000	4.01061	538.185
193.1000	4.12809	542.15
193.0000	4.2099	546.228
192.9000	4.17743	550.287
192.8000	4.03055	554.172
192.7000	4.31439	557.692
192.6000	4.56343	560.668
192.5000	4.90376	563.051
192.4000	5.06454	564.903
192.3000	4.85624	566.31
192.2000	4.577	567.394
192.1000	4.56291	568.29
192.0000	4.91146	569.162
191.9000	4.60251	570.202
191.8000	4.33074	571.665
191.7000	4.86956	573.715
191.6000	5.03942	576.342
191.5000	5.25621	579.548
191.4000	5.47378	583.365
191.3000	5.19351	587.832
191.2000	5.00169	592.95
191.1000	5.12183	598.685
191.0000	5.0724	604.906
190.9000	5.12037	611.478
190.8000	4.27921	618.21
190.7000	3.80605	624.98
190.6000	3.82062	631.595
190.5000	4.06444	637.721
190.4000	4.16535	643.101
190.3000	4.98619	647.658
190.2000	5.87058	651.404
190.1000	3.79884	654.456
190.0000	1	656.986

##### Extended Information
[Comments]
Sample name	ACE2_seo_0.6uM
Comment
User
Division
Company	CSIR-IMTECH

[Detailed Information]
Creation date	4/8/2024 5:15 PM

Data array type	Linear data array * 2
Horizontal axis	Wavelength [nm]
Vertical axis(1)	CD [mdeg]
Vertical axis(2)	HT [V]
Start	350 nm
End	190 nm
Data interval	0.1 nm
Data points	1601    

[Measurement Information]
Instrument Name	JASCO CD
Model Name	J-815
Serial No.	B063061168

Accessory	PTC-423S
Accessory S/N	C013945-01
  Temperature	36.05 C
  Control Sonsor	Cell
  Monitor Sensor	Cell
  Start Mode	Start immediately
  Cell Length	10 mm

Measurement date	4/8/2024 5:14 PM

Photometric Mode	CD, HT
Measure Range	350 - 190 nm
Data pitch	0.1 nm
Sensitivity	Standard
D.I.T.	1 sec
Bandwidth	1.00 nm
Start Mode	Immediately
Scanning Speed	50 nm/min
Baseline Correction	None
Shutter Control	Auto
CD Detector	PMT
PMT Voltage	Auto
Accumulations	3
Concentration	0.27 umol/L

