TITLE	ACE2_3uL_0.12uM
DATA TYPE	
ORIGIN	JASCO
OWNER	
DATE	24/02/26
TIME	13:16:03
SPECTROMETER/DATA SYSTEM	
LOCALE	1033
RESOLUTION	
DELTAX	-0.1
XUNITS	NANOMETERS
YUNITS	CD [mdeg]
Y2UNITS	HT [V]
FIRSTX	  350.0000
LASTX	  190.0000
NPOINTS	    1601
FIRSTY	     1.05708
MAXY	     5.25952
MINY	    -1.80626
XYDATA
350.0000	1.05708	473.556
349.9000	1.10742	472.934
349.8000	1.4995	472.085
349.7000	1.72788	471.22
349.6000	1.68392	470.59
349.5000	1.17041	470.033
349.4000	0.615083	469.124
349.3000	0.222627	468.486
349.2000	0.0892314	467.959
349.1000	-0.0211161	467.159
349.0000	0.087559	466.54
348.9000	0.162179	465.979
348.8000	0.105145	465.069
348.7000	0.021167	464.136
348.6000	0.231514	463.471
348.5000	0.518295	462.914
348.4000	0.785231	462.03
348.3000	0.80567	461.345
348.2000	0.816607	460.143
348.1000	0.793881	455.796
348.0000	0.872801	455.229
347.9000	1.10251	454.678
347.8000	0.956553	453.185
347.7000	0.900318	448.924
347.6000	0.960104	443.424
347.5000	0.998398	428.02
347.4000	0.785461	410.523
347.3000	0.749032	396.609
347.2000	0.716009	378.679
347.1000	0.721127	364.53
347.0000	0.834517	359.835
346.9000	0.765317	361.271
346.8000	0.609111	352.556
346.7000	0.361399	348.312
346.6000	0.263095	347.501
346.5000	0.331231	347.967
346.4000	0.125735	366.382
346.3000	-0.111288	382.287
346.2000	-0.32621	388.844
346.1000	-0.273456	387.787
346.0000	-0.248839	393.541
345.9000	-0.365555	408.277
345.8000	-0.310162	424.703
345.7000	-0.531308	440.941
345.6000	-0.686486	443.424
345.5000	-0.722782	442.515
345.4000	-0.320175	441.973
345.3000	-0.272187	441.509
345.2000	-0.39353	440.778
345.1000	-0.076177	440.041
345.0000	0.210469	439.508
344.9000	0.46304	438.832
344.8000	0.649763	438.143
344.7000	0.922286	437.614
344.6000	0.951459	436.944
344.5000	0.910892	436.262
344.4000	1.06823	435.766
344.3000	1.03812	435.108
344.2000	0.925994	434.43
344.1000	0.776155	428.859
344.0000	0.731432	428.47
343.9000	0.61396	427.803
343.8000	0.428578	427.297
343.7000	0.404835	426.853
343.6000	0.472284	426.187
343.5000	0.394911	425.698
343.4000	0.199307	425.28
343.3000	0.266473	428.695
343.2000	0.344708	428.926
343.1000	0.372773	428.476
343.0000	0.461113	427.861
342.9000	0.472689	427.232
342.8000	0.346783	426.756
342.7000	0.160314	426.132
342.6000	0.195828	425.501
342.5000	0.0817474	425.05
342.4000	0.120028	424.486
342.3000	0.342626	423.917
342.2000	0.440754	423.482
342.1000	0.309352	422.92
342.0000	0.158447	421.339
341.9000	0.125062	409.554
341.8000	0.229799	393.524
341.7000	0.300612	376.542
341.6000	0.290862	359.474
341.5000	0.0853149	342.279
341.4000	0.155465	325.057
341.3000	0.347866	307.967
341.2000	0.502201	290.804
341.1000	0.699407	281.421
341.0000	0.612195	277.541
340.9000	0.577278	264.882
340.8000	0.621816	248.993
340.7000	0.648758	243.343
340.6000	0.560802	231.596
340.5000	0.389201	215.98
340.4000	0.366222	199.567
340.3000	0.430889	182.929
340.2000	0.564187	167.42
340.1000	0.830381	176.576
340.0000	0.744053	191.073
339.9000	0.719794	200.193
339.8000	0.700942	207.97
339.7000	0.618061	222.173
339.6000	0.532389	237.806
339.5000	0.438357	253.823
339.4000	0.269221	269.824
339.3000	0.0425995	278.084
339.2000	0.143303	280.296
339.1000	0.282679	285.87
339.0000	0.26408	294.508
338.9000	0.377369	296.139
338.8000	0.51756	296.29
338.7000	0.484066	296.081
338.6000	0.559253	295.754
338.5000	0.660416	293.237
338.4000	0.686707	305.053
338.3000	0.530207	315.792
338.2000	0.501048	305.805
338.1000	0.593823	303.043
338.0000	0.686835	302.169
337.9000	0.697442	301.744
337.8000	0.567807	301.507
337.7000	0.515406	301.234
337.6000	0.448093	289.552
337.5000	0.297075	274.213
337.4000	0.191916	268.979
337.3000	0.0392598	267.566
337.2000	-0.124405	266.987
337.1000	-0.178515	266.645
337.0000	-0.10658	266.352
336.9000	-0.0354624	267.032
336.8000	-0.0563792	273.548
336.7000	-0.102906	282.558
336.6000	-0.0572449	284.314
336.5000	-0.0533386	284.529
336.4000	-0.134724	284.453
336.3000	-0.277765	284.224
336.2000	-0.492237	283.965
336.1000	-0.503093	283.146
336.0000	-0.568267	281.652
335.9000	-0.321123	267.904
335.8000	-0.19921	264.271
335.7000	-0.16309	263.23
335.6000	-0.0367686	262.784
335.5000	0.104811	263.002
335.4000	0.370166	274.841
335.3000	0.639745	277.476
335.2000	0.807344	277.9
335.1000	0.766588	277.837
335.0000	0.619872	277.725
334.9000	0.656284	277.526
334.8000	0.584336	277.306
334.7000	0.517572	277.048
334.6000	0.446775	266.609
334.5000	0.277251	261.642
334.4000	0.113037	260.285
334.3000	0.156041	259.788
334.2000	0.125582	259.481
334.1000	0.0195953	259.188
334.0000	0.0917918	258.944
333.9000	0.140803	258.768
333.8000	0.301389	258.552
333.7000	0.385992	258.331
333.6000	0.33799	258.082
333.5000	0.236788	257.86
333.4000	0.192666	257.633
333.3000	0.271626	257.408
333.2000	0.26543	257.214
333.1000	0.242552	257.018
333.0000	0.106251	256.796
332.9000	-0.0559916	256.594
332.8000	-0.143687	262.652
332.7000	-0.159061	264.404
332.6000	-0.175994	264.653
332.5000	-0.267694	264.531
332.4000	-0.292583	264.355
332.3000	-0.220619	264.156
332.2000	0.0813741	263.935
332.1000	0.178572	263.732
332.0000	0.315991	258.867
331.9000	0.35747	255.437
331.8000	0.328151	260.636
331.7000	0.443692	266.252
331.6000	0.494294	267.385
331.5000	0.483367	267.428
331.4000	0.296778	267.288
331.3000	0.126671	267.113
331.2000	-0.0692586	266.917
331.1000	-0.146526	266.744
331.0000	-0.000432332	265.278
330.9000	0.0539408	255.356
330.8000	0.0228495	252.967
330.7000	0.0814219	252.255
330.6000	0.129606	251.962
330.5000	0.226884	251.761
330.4000	0.437327	251.558
330.3000	0.517927	251.382
330.2000	0.405005	251.141
330.1000	0.303976	250.945
330.0000	0.293047	250.775
329.9000	0.382478	250.575
329.8000	0.24561	261.232
329.7000	0.177479	266.668
329.6000	0.0446859	267.758
329.5000	-0.0128042	267.896
329.4000	0.00380554	267.776
329.3000	-0.0788676	280.189
329.2000	-0.120713	294.908
329.1000	-0.221841	309.56
329.0000	-0.315363	309.468
328.9000	-0.383537	302.853
328.8000	-0.336733	301.011
328.7000	-0.404698	301.592
328.6000	-0.360404	312.413
328.5000	-0.402994	307.477
328.4000	-0.458251	292.641
328.3000	-0.343057	290.502
328.2000	-0.182857	286.056
328.1000	-0.0981842	284.73
328.0000	-0.0835927	284.345
327.9000	-0.00126851	284.082
327.8000	0.101465	273.752
327.7000	0.210627	269.402
327.6000	0.234494	268.326
327.5000	0.0639303	260.306
327.4000	-0.154504	249.547
327.3000	-0.182262	246.911
327.2000	-0.258555	246.152
327.1000	-0.321842	245.92
327.0000	-0.377949	245.837
326.9000	-0.340588	245.661
326.8000	-0.223478	245.477
326.7000	-0.0951589	245.294
326.6000	-0.0363393	245.197
326.5000	-0.133246	245.139
326.4000	-0.0992167	244.954
326.3000	-0.103507	244.747
326.2000	-0.275558	244.535
326.1000	-0.290016	244.407
326.0000	-0.341009	244.189
325.9000	-0.244258	243.975
325.8000	-0.174459	243.758
325.7000	-0.0301208	243.256
325.6000	-0.0229635	243.091
325.5000	0.0104736	242.922
325.4000	0.194033	242.756
325.3000	0.166251	242.581
325.2000	0.118045	242.502
325.1000	0.107269	242.472
325.0000	0.0511963	242.343
324.9000	0.0606242	242.26
324.8000	0.0871623	242.373
324.7000	0.161365	242.28
324.6000	0.209028	242.213
324.5000	0.203856	242.048
324.4000	0.304848	241.879
324.3000	0.264294	241.678
324.2000	0.18012	241.544
324.1000	0.124035	241.105
324.0000	0.0903717	235.23
323.9000	0.0387909	232.921
323.8000	-0.0591878	227.114
323.7000	-0.0926198	223.332
323.6000	-0.0571889	211.474
323.5000	-0.124257	197.649
323.4000	-0.0655507	183.345
323.3000	-0.00233053	169.006
323.2000	-0.0134226	170.203
323.1000	0.0368418	172.383
323.0000	0.0867371	178.513
322.9000	0.0930196	179.695
322.8000	0.0416809	189.589
322.7000	0.0356333	202.708
322.6000	0.0453684	216.553
322.5000	0.0695679	229.745
322.4000	0.103027	238.359
322.3000	0.0295675	237.627
322.2000	-0.0238444	237.381
322.1000	-0.0223287	237.178
322.0000	0.0426829	236.973
321.9000	0.120191	236.82
321.8000	0.0794251	236.631
321.7000	0.127649	237.094
321.6000	0.104459	237.228
321.5000	0.165851	237.078
321.4000	0.162671	236.995
321.3000	0.2247	236.905
321.2000	0.22889	236.833
321.1000	0.119931	236.731
321.0000	0.0293335	236.679
320.9000	-0.0506093	236.581
320.8000	-0.119701	236.482
320.7000	-0.0774099	236.373
320.6000	-0.0674927	236.265
320.5000	-0.0270884	236.191
320.4000	-0.0151611	236.044
320.3000	0.0651255	235.88
320.2000	0.24932	232.118
320.1000	0.461912	232.678
320.0000	0.566579	247.334
319.9000	0.53655	260.875
319.8000	0.509987	274.668
319.7000	0.520238	288.226
319.6000	0.384075	302.115
319.5000	0.270676	316.043
319.4000	0.188492	333.681
319.3000	0.0408081	344.177
319.2000	-0.0807048	335.775
319.1000	-0.0790934	322.68
319.0000	-0.0467072	308.772
318.9000	-0.0514832	294.988
318.8000	-0.0167267	280.97
318.7000	0.0574839	266.795
318.6000	0.110869	252.606
318.5000	0.133708	239.383
318.4000	0.167029	234.893
318.3000	0.130173	233.83
318.2000	0.0421865	233.512
318.1000	-0.0587077	233.372
318.0000	-0.0216237	233.242
317.9000	-0.0363169	233.17
317.8000	-0.0525838	233.099
317.7000	-0.0499308	233.045
317.6000	-0.0962219	232.941
317.5000	-0.137925	232.853
317.4000	-0.0966481	232.74
317.3000	0.0258911	232.615
317.2000	-0.00495911	232.474
317.1000	0.0382813	232.345
317.0000	0.0996257	232.182
316.9000	0.104329	232.022
316.8000	0.0939473	231.875
316.7000	0.171217	231.745
316.6000	0.164095	231.618
316.5000	0.087617	231.511
316.4000	0.111095	231.382
316.3000	0.0230133	231.268
316.2000	-0.00677592	231.176
316.1000	-0.0854279	231.104
316.0000	-0.130638	230.882
315.9000	-0.152066	230.313
315.8000	-0.149344	230.223
315.7000	-0.094221	230.112
315.6000	-0.0646342	230.039
315.5000	-0.0621236	229.928
315.4000	-0.0491404	229.827
315.3000	-0.0300832	229.687
315.2000	0.00888367	229.541
315.1000	-0.00201925	226.205
315.0000	0.0786519	214.745
314.9000	0.194106	201.485
314.8000	0.17791	187.839
314.7000	0.154298	174.105
314.6000	0.0860321	160.365
314.5000	0.0889669	146.643
314.4000	0.180353	132.932
314.3000	0.203468	120.463
314.2000	0.153101	116.539
314.1000	0.0349955	128.293
314.0000	0.0126261	141.709
313.9000	0.0403249	155.196
313.8000	0.0949473	168.345
313.7000	0.131738	177.262
313.6000	0.114122	187.269
313.5000	0.0872111	200.821
313.4000	0.111909	214.342
313.3000	0.0400777	219.556
313.2000	-0.0785004	210.842
313.1000	-0.132594	198.884
313.0000	-0.186255	185.716
312.9000	-0.163027	174.348
312.8000	-0.137933	167.197
312.7000	-0.0568298	153.546
312.6000	0.0162669	142.298
312.5000	0.091925	129.255
312.4000	0.272592	120.948
312.3000	0.403056	118.58
312.2000	0.467001	117.787
312.1000	0.531487	117.544
312.0000	0.513835	117.433
311.9000	0.524188	117.354
311.8000	0.520675	115.272
311.7000	0.472769	114.3
311.6000	0.411208	114.026
311.5000	0.326051	113.925
311.4000	0.314941	113.862
311.3000	0.324786	117.547
311.2000	0.377948	131.632
311.1000	0.346841	145.046
311.0000	0.296167	158.447
310.9000	0.350333	171.854
310.8000	0.387004	185.233
310.7000	0.425303	195.56
310.6000	0.470499	198.138
310.5000	0.509107	198.71
310.4000	0.415369	185.469
310.3000	0.357127	171.987
310.2000	0.347191	158.536
310.1000	0.377694	145.077
310.0000	0.369477	131.623
309.9000	0.454973	118.991
309.8000	0.442273	114.63
309.7000	0.393054	113.605
309.6000	0.400422	113.344
309.5000	0.465707	113.26
309.4000	0.510997	113.214
309.3000	0.570099	113.148
309.2000	0.622057	113.101
309.1000	0.545261	113.051
309.0000	0.547506	113.009
308.9000	0.572604	122.545
308.8000	0.550937	130.518
308.7000	0.543326	137.551
308.6000	0.517919	151.157
308.5000	0.435957	160.699
308.4000	0.343144	162.966
308.3000	0.377974	163.482
308.2000	0.401543	163.566
308.1000	0.365816	158.843
308.0000	0.410828	147.435
307.9000	0.453079	145.58
307.8000	0.529247	141.946
307.7000	0.531303	132.217
307.6000	0.492713	128.948
307.5000	0.458955	128.157
307.4000	0.396473	127.948
307.3000	0.419929	127.879
307.2000	0.458677	127.839
307.1000	0.422031	127.785
307.0000	0.331597	117.474
306.9000	0.322301	113.464
306.8000	0.320766	126.032
306.7000	0.23469	139.09
306.6000	0.191158	152.266
306.5000	0.121631	165.481
306.4000	0.0442067	178.669
306.3000	0.00928853	191.877
306.2000	0.0891886	205.077
306.1000	0.065565	218.28
306.0000	0.0249583	222.512
305.9000	0.0200358	222.341
305.8000	0.0818146	228.366
305.7000	0.193738	229.749
305.6000	0.241107	230.026
305.5000	0.203801	230.06
305.4000	0.162337	230.053
305.3000	0.191536	238.92
305.2000	0.268824	241.454
305.1000	0.34869	242.014
305.0000	0.386122	237.169
304.9000	0.362613	234.727
304.8000	0.283482	234.14
304.7000	0.421715	233.97
304.6000	0.482537	233.859
304.5000	0.470745	227.022
304.4000	0.444558	222.73
304.3000	0.459355	221.672
304.2000	0.446908	221.393
304.1000	0.479314	221.299
304.0000	0.549152	221.253
303.9000	0.473686	221.179
303.8000	0.361103	221.122
303.7000	0.28559	221.085
303.6000	0.2257	221.008
303.5000	0.1914	223.186
303.4000	0.178671	223.826
303.3000	0.131093	223.901
303.2000	-0.00397339	223.86
303.1000	-0.0623189	223.816
303.0000	-0.112469	223.785
302.9000	-0.0652934	223.714
302.8000	-0.0680898	223.664
302.7000	-0.172311	222.446
302.6000	-0.224335	230.841
302.5000	-0.337379	244.471
302.4000	-0.330707	257.507
302.3000	-0.325367	270.526
302.2000	-0.340507	283.521
302.1000	-0.344295	295.992
302.0000	-0.379777	307.146
301.9000	-0.299514	310.221
301.8000	-0.253417	303.285
301.7000	-0.195813	291.458
301.6000	-0.139432	278.275
301.5000	-0.0218679	265.15
301.4000	0.0740377	252.02
301.3000	0.121214	239.452
301.2000	0.108467	226.558
301.1000	0.16458	221.276
301.0000	0.160109	222.681
300.9000	0.16061	229.786
300.8000	0.225837	235.571
300.7000	0.218893	244.946
300.6000	0.196276	247.023
300.5000	0.25733	247.481
300.4000	0.295105	247.574
300.3000	0.253593	247.549
300.2000	0.296439	247.507
300.1000	0.356225	249.884
300.0000	0.38135	256.715
299.9000	0.349394	247.551
299.8000	0.274481	244.701
299.7000	0.18057	244.01
299.6000	0.101036	243.812
299.5000	0.136788	243.739
299.4000	0.119933	243.701
299.3000	0.0892131	236.278
299.2000	0.0364044	225.489
299.1000	-0.00183411	220.419
299.0000	0.092513	219.23
298.9000	0.115715	218.926
298.8000	0.12948	218.835
298.7000	0.112047	218.773
298.6000	0.0355865	225.501
298.5000	-0.0413696	229.602
298.4000	-0.135625	230.505
298.3000	-0.125115	230.689
298.2000	-0.148655	230.707
298.1000	-0.118	230.681
298.0000	-0.0612712	230.649
297.9000	-0.00620931	230.621
297.8000	-0.0234772	227.326
297.7000	0.0076355	220.406
297.6000	0.0728038	218.836
297.5000	0.115595	218.432
297.4000	0.114559	218.315
297.3000	0.0285319	218.267
297.2000	-0.066216	218.214
297.1000	-0.142769	218.176
297.0000	-0.173176	218.142
296.9000	-0.200193	218.095
296.8000	-0.216039	218.062
296.7000	-0.205502	218.036
296.6000	-0.268398	218.012
296.5000	-0.264692	217.978
296.4000	-0.188027	217.952
296.3000	-0.179347	217.937
296.2000	-0.18258	217.907
296.1000	-0.14861	217.885
296.0000	-0.0957682	217.869
295.9000	-0.038443	217.841
295.8000	0.0158661	217.803
295.7000	0.0589518	217.778
295.6000	0.0345673	217.752
295.5000	0.0161641	217.714
295.4000	0.0146545	217.668
295.3000	0.0576497	217.64
295.2000	0.0767741	217.602
295.1000	0.0153615	217.553
295.0000	-0.0948446	217.523
294.9000	-0.108674	217.488
294.8000	-0.140784	217.443
294.7000	-0.157301	217.415
294.6000	-0.183786	217.392
294.5000	-0.169077	217.364
294.4000	-0.194777	217.343
294.3000	-0.201811	217.326
294.2000	-0.146275	217.295
294.1000	-0.126701	217.271
294.0000	-0.087262	217.254
293.9000	-0.0445302	217.222
293.8000	0.0382456	217.201
293.7000	0.0511251	217.186
293.6000	0.0523895	217.15
293.5000	0.0358327	217.11
293.4000	0.0395396	217.094
293.3000	0.0379364	217.072
293.2000	-0.00836792	217.04
293.1000	-0.045755	217.028
293.0000	-0.0798208	217.001
292.9000	-0.0861481	216.969
292.8000	-0.123184	216.955
292.7000	-0.109948	216.939
292.6000	-0.102667	216.917
292.5000	-0.044691	216.878
292.4000	-0.0558726	216.856
292.3000	-0.0436625	216.823
292.2000	-0.0744944	216.792
292.1000	-0.159492	216.775
292.0000	-0.235566	216.748
291.9000	-0.251272	216.713
291.8000	-0.276285	216.681
291.7000	-0.379675	216.666
291.6000	-0.404141	216.638
291.5000	-0.431181	216.609
291.4000	-0.399081	216.593
291.3000	-0.295867	216.558
291.2000	-0.201955	216.517
291.1000	-0.102805	216.477
291.0000	-0.0566722	216.447
290.9000	0.0409688	216.405
290.8000	0.169341	216.351
290.7000	0.214727	216.292
290.6000	0.269563	216.225
290.5000	0.306581	216.142
290.4000	0.361178	216.058
290.3000	0.415561	215.988
290.2000	0.441123	215.901
290.1000	0.378282	215.81
290.0000	0.311949	215.725
289.9000	0.2688	215.665
289.8000	0.271471	215.613
289.7000	0.25782	215.574
289.6000	0.243786	215.564
289.5000	0.221556	215.575
289.4000	0.214465	215.597
289.3000	0.240263	215.642
289.2000	0.228199	215.695
289.1000	0.232689	215.762
289.0000	0.272825	215.83
288.9000	0.233277	215.894
288.8000	0.19681	216.127
288.7000	0.168459	216.455
288.6000	0.136563	216.548
288.5000	0.0853353	216.588
288.4000	0.104894	216.608
288.3000	0.128977	216.622
288.2000	0.058079	216.623
288.1000	-0.0265269	216.617
288.0000	-0.0301849	216.606
287.9000	0.033962	216.181
287.8000	0.112273	216.072
287.7000	0.214535	216.04
287.6000	0.223575	216.019
287.5000	0.214128	215.997
287.4000	0.266496	215.985
287.3000	0.344412	215.968
287.2000	0.340614	215.957
287.1000	0.301228	216.068
287.0000	0.253276	216.11
286.9000	0.198817	216.108
286.8000	0.209147	216.097
286.7000	0.157113	216.086
286.6000	0.0965454	216.059
286.5000	0.119813	216.049
286.4000	0.160627	216.045
286.3000	0.264682	215.976
286.2000	0.229285	215.859
286.1000	0.131587	215.819
286.0000	0.114535	215.81
285.9000	0.0690887	215.803
285.8000	0.155138	215.799
285.7000	0.134244	215.788
285.6000	0.10452	215.767
285.5000	0.0766113	215.76
285.4000	0.104998	215.762
285.3000	0.22938	215.762
285.2000	0.265395	215.757
285.1000	0.288368	215.743
285.0000	0.286923	215.742
284.9000	0.286241	215.742
284.8000	0.327938	215.743
284.7000	0.309112	215.736
284.6000	0.227672	215.721
284.5000	0.131837	215.722
284.4000	0.102207	215.726
284.3000	0.0626943	215.726
284.2000	0.113659	215.727
284.1000	0.130731	215.715
284.0000	0.154251	215.703
283.9000	0.189343	215.704
283.8000	0.192862	215.709
283.7000	0.252614	215.707
283.6000	0.249471	215.696
283.5000	0.33171	215.696
283.4000	0.386688	215.69
283.3000	0.406397	215.699
283.2000	0.405068	215.716
283.1000	0.397755	215.72
283.0000	0.464148	215.717
282.9000	0.526624	215.712
282.8000	0.515617	215.712
282.7000	0.427341	215.718
282.6000	0.330935	215.726
282.5000	0.309299	215.731
282.4000	0.310523	215.726
282.3000	0.30721	215.724
282.2000	0.242987	215.721
282.1000	0.113123	215.73
282.0000	0.0290212	215.737
281.9000	0.0263224	215.738
281.8000	0.0401449	215.738
281.7000	0.0409088	215.736
281.6000	0.0321177	215.737
281.5000	-0.0302419	215.733
281.4000	-0.0225342	215.745
281.3000	0.0237803	215.755
281.2000	0.141796	215.755
281.1000	0.236403	215.752
281.0000	0.209074	215.748
280.9000	0.214456	215.745
280.8000	0.259413	215.739
280.7000	0.255969	215.735
280.6000	0.25477	215.736
280.5000	0.284763	215.728
280.4000	0.312379	215.723
280.3000	0.266619	215.716
280.2000	0.389496	215.709
280.1000	0.443567	215.703
280.0000	0.409919	215.697
279.9000	0.413092	215.693
279.8000	0.469639	215.681
279.7000	0.533745	215.677
279.6000	0.577474	215.672
279.5000	0.566761	215.67
279.4000	0.509325	215.669
279.3000	0.43649	215.668
279.2000	0.465266	215.671
279.1000	0.519705	215.671
279.0000	0.484972	215.671
278.9000	0.450296	215.668
278.8000	0.345549	215.672
278.7000	0.32119	215.677
278.6000	0.304241	215.683
278.5000	0.279526	215.691
278.4000	0.307883	215.696
278.3000	0.165561	215.702
278.2000	0.113723	215.711
278.1000	0.137372	215.718
278.0000	0.189529	215.72
277.9000	0.159997	215.719
277.8000	0.110651	215.715
277.7000	0.126013	215.711
277.6000	0.125065	215.717
277.5000	0.146786	215.728
277.4000	0.18372	215.737
277.3000	0.132262	215.745
277.2000	0.0557627	215.751
277.1000	0.00999756	215.758
277.0000	-0.00494893	215.765
276.9000	-0.00957235	215.772
276.8000	0.00291646	215.771
276.7000	0.0330617	215.764
276.6000	0.109607	219.988
276.5000	0.142557	226.002
276.4000	0.167283	227.355
276.3000	0.221409	227.668
276.2000	0.261463	233.155
276.1000	0.264323	238.106
276.0000	0.190936	239.23
275.9000	0.14124	239.502
275.8000	0.117028	239.472
275.7000	0.11598	230.468
275.6000	0.0984222	228.276
275.5000	0.101663	227.774
275.4000	0.130865	226.308
275.3000	0.101514	218.213
275.2000	0.141383	216.412
275.1000	0.212548	215.999
275.0000	0.228805	215.905
274.9000	0.254436	215.884
274.8000	0.258593	215.885
274.7000	0.238553	215.888
274.6000	0.210163	215.894
274.5000	0.240617	215.899
274.4000	0.292612	215.909
274.3000	0.271681	215.916
274.2000	0.291165	215.927
274.1000	0.251238	215.938
274.0000	0.19821	215.949
273.9000	0.146389	215.959
273.8000	0.0258453	215.97
273.7000	0.0511078	215.982
273.6000	0.0705963	215.989
273.5000	0.0611176	215.992
273.4000	0.00931498	215.995
273.3000	-0.056426	216
273.2000	-0.0633494	216.004
273.1000	-0.0324666	216.012
273.0000	-0.0154582	216.02
272.9000	-0.0845591	216.026
272.8000	-0.115556	216.03
272.7000	-0.125087	216.037
272.6000	-0.115829	216.045
272.5000	0.00542806	216.055
272.4000	0.125648	216.066
272.3000	0.149692	216.077
272.2000	0.207677	216.09
272.1000	0.273624	216.103
272.0000	0.274273	216.122
271.9000	0.28013	216.142
271.8000	0.27198	216.157
271.7000	0.2031	216.167
271.6000	0.0665446	216.175
271.5000	-0.000970459	216.184
271.4000	0.0390116	216.192
271.3000	0.0622467	216.196
271.2000	0.0458628	216.194
271.1000	0.0510122	216.194
271.0000	0.0936239	216.196
270.9000	0.0598226	216.191
270.8000	0.0696269	216.188
270.7000	0.0383545	216.182
270.6000	0.0457713	216.177
270.5000	0.0279907	216.171
270.4000	0.0156118	216.17
270.3000	0.0462341	216.171
270.2000	0.0268606	216.173
270.1000	0.0423625	216.18
270.0000	0.0889557	216.191
269.9000	0.171321	216.203
269.8000	0.207364	216.211
269.7000	0.238413	216.218
269.6000	0.32781	216.229
269.5000	0.362624	216.24
269.4000	0.357678	216.238
269.3000	0.369599	216.235
269.2000	0.346866	216.235
269.1000	0.304062	216.236
269.0000	0.398664	216.247
268.9000	0.336276	216.262
268.8000	0.256942	216.272
268.7000	0.206393	216.283
268.6000	0.191504	216.308
268.5000	0.135997	216.34
268.4000	0.125621	216.377
268.3000	0.164041	216.406
268.2000	0.10376	216.43
268.1000	0.130895	216.453
268.0000	0.222114	216.484
267.9000	0.23238	216.518
267.8000	0.209711	216.552
267.7000	0.21262	216.586
267.6000	0.151574	216.617
267.5000	0.126537	216.654
267.4000	0.111314	216.68
267.3000	0.106457	216.709
267.2000	0.0966187	224.985
267.1000	0.0486867	227.94
267.0000	0.0651215	228.647
266.9000	0.0788615	228.831
266.8000	0.121142	228.897
266.7000	0.0997477	237.085
266.6000	0.0568227	240.096
266.5000	0.0304179	240.823
266.4000	-0.0669128	235.235
266.3000	-0.0216014	230.46
266.2000	0.0194	229.392
266.1000	0.110645	229.166
266.0000	0.214536	229.124
265.9000	0.274505	223.492
265.8000	0.414764	218.585
265.7000	0.452295	217.493
265.6000	0.573256	217.271
265.5000	0.565957	217.248
265.4000	0.586363	217.266
265.3000	0.607335	217.291
265.2000	0.52799	217.325
265.1000	0.468258	217.369
265.0000	0.432209	217.409
264.9000	0.431816	217.458
264.8000	0.355426	217.492
264.7000	0.300174	217.527
264.6000	0.233895	217.574
264.5000	0.106107	217.622
264.4000	0.0358358	217.67
264.3000	0.0221649	217.704
264.2000	0.0409007	217.746
264.1000	0.0194529	217.79
264.0000	0.024762	217.838
263.9000	0.0356344	217.89
263.8000	0.0775625	217.934
263.7000	0.0465383	217.975
263.6000	0.0530304	218.018
263.5000	0.0317495	218.064
263.4000	0.0207184	218.116
263.3000	-0.0137604	218.145
263.2000	-0.025117	218.179
263.1000	0.00622864	218.219
263.0000	0.117762	218.256
262.9000	0.21411	218.286
262.8000	0.271751	218.318
262.7000	0.348616	218.353
262.6000	0.373254	218.397
262.5000	0.35484	218.452
262.4000	0.360519	218.5
262.3000	0.370002	218.541
262.2000	0.358945	218.583
262.1000	0.33914	218.642
262.0000	0.33372	218.692
261.9000	0.337899	218.744
261.8000	0.302755	218.794
261.7000	0.278208	218.83
261.6000	0.281762	218.868
261.5000	0.273397	218.913
261.4000	0.248079	218.961
261.3000	0.237754	218.998
261.2000	0.181783	219.044
261.1000	0.148936	219.095
261.0000	0.15103	219.152
260.9000	0.216375	219.207
260.8000	0.210244	219.271
260.7000	0.211414	219.334
260.6000	0.154867	219.387
260.5000	0.164803	219.449
260.4000	0.152457	219.514
260.3000	0.137983	219.578
260.2000	0.168041	219.635
260.1000	0.120379	219.692
260.0000	0.0371521	219.75
259.9000	0.0231242	219.8
259.8000	0.0180481	219.859
259.7000	0.0674469	219.919
259.6000	0.12059	219.97
259.5000	0.179794	220.02
259.4000	0.203629	220.071
259.3000	0.257794	220.119
259.2000	0.320849	220.167
259.1000	0.381451	220.217
259.0000	0.392336	220.257
258.9000	0.278684	220.293
258.8000	0.180805	220.331
258.7000	0.157529	220.369
258.6000	0.13881	220.416
258.5000	0.0829203	220.465
258.4000	0.0816091	220.51
258.3000	0.149836	220.565
258.2000	0.22103	220.625
258.1000	0.231114	220.682
258.0000	0.250766	220.746
257.9000	0.241304	220.812
257.8000	0.248753	220.867
257.7000	0.300787	220.922
257.6000	0.267544	220.974
257.5000	0.130424	221.017
257.4000	-0.00770569	221.067
257.3000	-0.0540812	221.12
257.2000	-0.0640157	221.174
257.1000	-0.00493571	221.231
257.0000	0.0375966	221.289
256.9000	0.000402832	221.347
256.8000	-0.00504049	221.399
256.7000	0.0713114	221.459
256.6000	0.113907	221.521
256.5000	0.101553	221.579
256.4000	0.0863088	221.64
256.3000	0.125484	221.689
256.2000	0.146218	221.735
256.1000	0.244226	221.792
256.0000	0.283138	221.844
255.9000	0.275679	221.899
255.8000	0.279873	221.946
255.7000	0.348794	221.995
255.6000	0.416494	222.039
255.5000	0.488832	222.081
255.4000	0.432921	222.131
255.3000	0.305013	222.174
255.2000	0.238518	222.227
255.1000	0.246366	222.284
255.0000	0.289699	222.349
254.9000	0.387322	222.406
254.8000	0.420521	222.459
254.7000	0.400859	222.522
254.6000	0.381015	222.589
254.5000	0.359678	222.657
254.4000	0.299291	222.713
254.3000	0.321333	223.268
254.2000	0.297112	237.442
254.1000	0.17546	250.699
254.0000	0.112371	263.828
253.9000	0.00695903	274.441
253.8000	-0.0870463	278.651
253.7000	-0.0661519	279.656
253.6000	-0.035906	279.929
253.5000	-0.102207	280.038
253.4000	-0.101615	269.969
253.3000	-0.0774597	256.755
253.2000	-0.125036	243.643
253.1000	-0.131289	232.336
253.0000	-0.106697	225.441
252.9000	-0.0887583	223.937
252.8000	-0.0227529	223.624
252.7000	0.0890737	223.586
252.6000	0.15177	223.61
252.5000	0.116417	223.654
252.4000	0.143703	223.704
252.3000	0.184459	223.761
252.2000	0.244279	223.814
252.1000	0.312408	223.87
252.0000	0.293011	223.921
251.9000	0.290889	223.968
251.8000	0.306132	224.022
251.7000	0.367965	224.074
251.6000	0.397263	224.133
251.5000	0.365335	224.182
251.4000	0.352272	224.246
251.3000	0.318356	224.307
251.2000	0.334453	224.358
251.1000	0.376083	224.414
251.0000	0.265743	224.462
250.9000	0.106374	224.519
250.8000	0.00285238	224.576
250.7000	0.0429331	224.647
250.6000	0.0886454	224.712
250.5000	0.0803029	224.763
250.4000	0.0307566	224.822
250.3000	-0.0457072	224.877
250.2000	-0.0875387	224.94
250.1000	-0.00741577	225.006
250.0000	0.0519094	225.061
249.9000	0.0400421	225.11
249.8000	0.0355855	225.146
249.7000	0.0689667	225.193
249.6000	0.115454	225.24
249.5000	0.0818247	225.288
249.4000	0.150239	225.345
249.3000	0.19702	225.4
249.2000	0.220958	225.448
249.1000	0.234456	225.502
249.0000	0.25854	225.774
248.9000	0.224612	239.877
248.8000	0.280467	253.156
248.7000	0.335909	266.665
248.6000	0.375482	273.68
248.5000	0.40262	275.273
248.4000	0.428692	275.69
248.3000	0.358843	279.899
248.2000	0.32048	294.098
248.1000	0.32224	297.491
248.0000	0.234063	297.856
247.9000	0.0790293	297.946
247.8000	0.0158213	301.331
247.7000	-0.120516	312.368
247.6000	-0.188314	325.341
247.5000	-0.105834	338.658
247.4000	-0.049706	338.248
247.3000	-0.0943146	337.06
247.2000	-0.121003	328.861
247.1000	-0.0792918	319.095
247.0000	-0.114214	310.71
246.9000	-0.0296916	300.69
246.8000	-0.0166372	296.418
246.7000	0.065037	286.222
246.6000	0.0410929	274.607
246.5000	0.0761546	265.774
246.4000	0.0603302	267.308
246.3000	0.000602214	268.635
246.2000	0.0436666	263.073
246.1000	0.0583872	259.28
246.0000	-0.0224864	252.068
245.9000	-0.140089	246.725
245.8000	-0.255245	245.5
245.7000	-0.302343	241.952
245.6000	-0.240152	234.093
245.5000	-0.131039	229.011
245.4000	-0.0753123	227.905
245.3000	-0.0827026	227.682
245.2000	-0.0375203	227.671
245.1000	-0.0397217	227.713
245.0000	-0.0853689	227.773
244.9000	-0.00352885	227.833
244.8000	-0.0463165	227.885
244.7000	-0.129291	227.942
244.6000	-0.17686	228.002
244.5000	-0.179951	228.065
244.4000	-0.19149	228.126
244.3000	-0.193886	228.187
244.2000	-0.109788	228.244
244.1000	-0.0997701	228.305
244.0000	-0.106467	228.368
243.9000	-0.120186	228.428
243.8000	-0.0746755	228.488
243.7000	-0.0354462	228.547
243.6000	-0.0513845	228.606
243.5000	-0.0290904	228.671
243.4000	0.0412933	228.745
243.3000	0.0459981	228.819
243.2000	0.0659281	228.894
243.1000	0.128581	228.966
243.0000	0.187054	229.034
242.9000	0.166675	229.104
242.8000	0.161088	229.175
242.7000	0.206037	229.245
242.6000	0.179785	229.31
242.5000	0.202569	233.033
242.4000	0.24561	237.183
242.3000	0.270554	238.156
242.2000	0.227686	238.433
242.1000	0.179087	238.554
242.0000	0.228291	238.641
241.9000	0.237929	238.718
241.8000	0.220594	238.792
241.7000	0.168229	238.353
241.6000	0.158541	231.937
241.5000	0.16613	230.519
241.4000	0.156436	230.252
241.3000	0.140401	230.299
241.2000	0.0421621	239.962
241.1000	-0.0436279	242.414
241.0000	-0.162166	243.041
240.9000	-0.26891	243.243
240.8000	-0.274096	243.35
240.7000	-0.355228	243.439
240.6000	-0.435635	243.522
240.5000	-0.493645	243.6
240.4000	-0.435554	235.995
240.3000	-0.416234	232.158
240.2000	-0.331001	231.334
240.1000	-0.158916	231.203
240.0000	-0.141447	231.231
239.9000	-0.0649322	231.297
239.8000	-0.143197	231.371
239.7000	-0.0891357	231.451
239.6000	-0.0203328	231.534
239.5000	-0.0195007	231.618
239.4000	0.155588	231.708
239.3000	0.0412282	231.799
239.2000	0.0819255	231.895
239.1000	0.163873	231.989
239.0000	0.294471	232.088
238.9000	0.360764	232.19
238.8000	0.304655	232.289
238.7000	0.279527	232.391
238.6000	0.121733	232.485
238.5000	0.116414	232.576
238.4000	0.162748	232.671
238.3000	0.11104	232.763
238.2000	-0.0208506	232.857
238.1000	-0.0616323	232.946
238.0000	-0.100314	233.037
237.9000	-0.0576508	233.132
237.8000	-0.00299784	233.228
237.7000	-0.0260122	233.327
237.6000	-0.133321	233.428
237.5000	-0.283921	233.531
237.4000	-0.355482	233.631
237.3000	-0.357844	233.734
237.2000	-0.30876	233.84
237.1000	-0.269749	233.941
237.0000	-0.252199	234.046
236.9000	-0.189717	234.153
236.8000	-0.0707041	234.258
236.7000	0.00533956	234.362
236.6000	0.0901632	234.465
236.5000	0.106842	234.569
236.4000	0.179833	238.559
236.3000	0.0608083	250.411
236.2000	-0.0171336	253.399
236.1000	-0.0965759	254.175
236.0000	-0.211229	254.442
235.9000	-0.304811	254.59
235.8000	-0.357835	254.712
235.7000	-0.407239	254.83
235.6000	-0.443229	254.94
235.5000	-0.416373	241.871
235.4000	-0.394074	237.202
235.3000	-0.37168	236.227
235.2000	-0.305291	241.398
235.1000	-0.291226	255.87
235.0000	-0.302884	269.999
234.9000	-0.306132	284.2
234.8000	-0.396082	295.458
234.7000	-0.498477	298.782
234.6000	-0.490787	299.621
234.5000	-0.51493	299.902
234.4000	-0.466	299.836
234.3000	-0.444655	285.101
234.2000	-0.354781	271.216
234.1000	-0.305459	257.225
234.0000	-0.16822	244.254
233.9000	-0.0778524	238.98
233.8000	-0.0219371	237.904
233.7000	-0.0611877	237.742
233.6000	-0.144979	237.793
233.5000	-0.317887	237.896
233.4000	-0.389341	238.011
233.3000	-0.442286	238.127
233.2000	-0.514673	238.251
233.1000	-0.503038	238.374
233.0000	-0.440987	238.498
232.9000	-0.303619	238.619
232.8000	-0.261595	238.741
232.7000	-0.151046	238.867
232.6000	-0.0336131	238.994
232.5000	0.0642995	239.121
232.4000	0.04776	239.243
232.3000	0.145457	239.366
232.2000	0.157273	239.484
232.1000	0.0212524	239.606
232.0000	-0.0626353	239.726
231.9000	-0.112584	239.845
231.8000	-0.152035	239.959
231.7000	-0.212597	240.076
231.6000	-0.27881	240.196
231.5000	-0.441847	240.315
231.4000	-0.588167	240.438
231.3000	-0.574942	240.558
231.2000	-0.516728	240.683
231.1000	-0.529261	240.805
231.0000	-0.50816	240.93
230.9000	-0.576318	241.055
230.8000	-0.685373	241.172
230.7000	-0.633688	241.295
230.6000	-0.707856	241.418
230.5000	-0.738801	241.55
230.4000	-0.76705	241.684
230.3000	-0.723742	241.821
230.2000	-0.71165	241.954
230.1000	-0.621415	242.09
230.0000	-0.54013	242.226
229.9000	-0.479118	242.359
229.8000	-0.390294	242.49
229.7000	-0.363377	242.62
229.6000	-0.470584	242.738
229.5000	-0.541003	242.851
229.4000	-0.515128	242.962
229.3000	-0.641725	243.07
229.2000	-0.639901	243.179
229.1000	-0.455204	243.293
229.0000	-0.408124	243.408
228.9000	-0.42601	243.519
228.8000	-0.324824	243.635
228.7000	-0.307763	243.761
228.6000	-0.367237	243.891
228.5000	-0.468488	244.025
228.4000	-0.430247	244.165
228.3000	-0.638375	244.307
228.2000	-0.755423	244.45
228.1000	-0.702042	244.603
228.0000	-0.559364	244.76
227.9000	-0.482855	244.914
227.8000	-0.455883	245.06
227.7000	-0.415145	245.209
227.6000	-0.469903	245.352
227.5000	-0.502491	245.494
227.4000	-0.605995	245.635
227.3000	-0.715325	245.774
227.2000	-0.753611	245.912
227.1000	-0.754262	246.049
227.0000	-0.795483	246.188
226.9000	-0.762779	246.329
226.8000	-0.661722	246.474
226.7000	-0.544707	246.619
226.6000	-0.445629	246.764
226.5000	-0.383229	246.903
226.4000	-0.400376	247.034
226.3000	-0.461981	247.164
226.2000	-0.431011	255.941
226.1000	-0.355455	271.162
226.0000	-0.369094	286.09
225.9000	-0.448191	301.02
225.8000	-0.508694	315.954
225.7000	-0.629621	330.899
225.6000	-0.639793	345.86
225.5000	-0.644385	360.833
225.4000	-0.690484	372.28
225.3000	-0.762062	362.1
225.2000	-0.909516	358.437
225.1000	-1.03621	349.389
225.0000	-1.01539	335.986
224.9000	-0.788083	321.615
224.8000	-0.677534	307.008
224.7000	-0.617832	292.337
224.6000	-0.55538	277.647
224.5000	-0.440357	268.901
224.4000	-0.271367	261.703
224.3000	-0.0768494	252.583
224.2000	0.034199	250.67
224.1000	-0.021052	250.321
224.0000	0.032019	250.339
223.9000	0.0835358	250.443
223.8000	0.187842	250.567
223.7000	0.072875	250.696
223.6000	-0.0539541	250.831
223.5000	-0.145443	250.967
223.4000	-0.337447	251.103
223.3000	-0.358739	251.239
223.2000	-0.417451	253.952
223.1000	-0.568091	262.773
223.0000	-0.819647	264.846
222.9000	-0.876182	265.437
222.8000	-0.936943	266.149
222.7000	-0.920566	266.551
222.6000	-0.813219	266.742
222.5000	-0.833209	276.047
222.4000	-1.01801	291.544
222.3000	-1.06205	297.1
222.2000	-1.03509	309.166
222.1000	-1.02694	323.668
222.0000	-1.02927	338.489
221.9000	-0.941032	353.283
221.8000	-0.978784	368.453
221.7000	-0.98553	378.786
221.6000	-0.815396	370.268
221.5000	-0.808617	356.946
221.4000	-0.776659	342.373
221.3000	-0.818644	327.498
221.2000	-0.785899	312.548
221.1000	-0.765999	297.577
221.0000	-0.724631	282.589
220.9000	-0.734595	278.64
220.8000	-0.745477	273.995
220.7000	-0.627761	272.742
220.6000	-0.571298	279.609
220.5000	-0.537712	295.316
220.4000	-0.496083	310.663
220.3000	-0.584269	326.04
220.2000	-0.633704	341.436
220.1000	-0.740602	351.471
220.0000	-0.719915	357.417
219.9000	-0.921514	370.762
219.8000	-1.10973	384.441
219.7000	-1.11976	383.43
219.6000	-1.2182	383.608
219.5000	-1.22185	383.821
219.4000	-1.39132	384.03
219.3000	-1.44151	384.241
219.2000	-1.49563	384.453
219.1000	-1.48597	384.661
219.0000	-1.55563	384.871
218.9000	-1.63967	385.078
218.8000	-1.6767	385.287
218.7000	-1.5953	385.495
218.6000	-1.53739	385.703
218.5000	-1.55464	385.911
218.4000	-1.36508	386.129
218.3000	-1.2681	386.338
218.2000	-1.2303	386.548
218.1000	-1.17346	386.757
218.0000	-1.16662	386.973
217.9000	-1.2206	387.188
217.8000	-1.2349	387.398
217.7000	-1.15859	387.611
217.6000	-1.09796	387.815
217.5000	-1.21014	388.026
217.4000	-1.26639	388.233
217.3000	-1.30594	383.785
217.2000	-1.21851	371.045
217.1000	-1.07252	356.335
217.0000	-1.00017	341.159
216.9000	-0.915288	325.872
216.8000	-1.05503	310.55
216.7000	-1.08206	295.208
216.6000	-1.0517	279.858
216.5000	-0.810497	266.141
216.4000	-0.765179	262.053
216.3000	-0.87712	261.217
216.2000	-0.886984	261.13
216.1000	-0.988101	261.218
216.0000	-0.930117	261.345
215.9000	-0.931159	261.481
215.8000	-0.857603	261.62
215.7000	-0.848632	261.766
215.6000	-1.0338	261.91
215.5000	-1.06587	275.747
215.4000	-1.13304	284.752
215.3000	-1.06027	293.721
215.2000	-0.910825	297.086
215.1000	-0.94101	298.033
215.0000	-1.02929	304.742
214.9000	-1.00575	312.961
214.8000	-0.938731	314.912
214.7000	-0.852803	307.095
214.6000	-0.840286	296.782
214.5000	-0.694659	286.256
214.4000	-0.623481	282.139
214.3000	-0.562733	281
214.2000	-0.460233	282.1
214.1000	-0.482489	277.997
214.0000	-0.468332	286.428
213.9000	-0.636841	288.437
213.8000	-0.764346	302.05
213.7000	-0.883056	318.113
213.6000	-1.07938	333.219
213.5000	-1.23675	346.299
213.4000	-1.22744	356.387
213.3000	-1.2636	355.992
213.2000	-1.32668	341.967
213.1000	-1.42117	338.11
213.0000	-1.24537	329.807
212.9000	-1.17136	313.718
212.8000	-1.14812	298.542
212.7000	-1.12253	283.895
212.6000	-1.01154	272.565
212.5000	-0.820804	268.138
212.4000	-0.729713	274.403
212.3000	-0.627575	283.05
212.2000	-0.486889	285.089
212.1000	-0.519063	285.7
212.0000	-0.523654	285.98
211.9000	-0.465562	298.862
211.8000	-0.602359	303.525
211.7000	-0.806611	320.493
211.6000	-0.941253	335.667
211.5000	-0.997546	338.701
211.4000	-1.07011	351.805
211.3000	-1.09951	365.167
211.2000	-0.984402	368.788
211.1000	-0.8856	359.609
211.0000	-0.768092	349.751
210.9000	-0.495601	336.583
210.8000	-0.356297	309.268
210.7000	-0.150202	278.344
210.6000	0.0921905	247.298
210.5000	0.112221	226.229
210.4000	0.244154	206.234
210.3000	0.203006	200.86
210.2000	0.0999715	202.561
210.1000	0.0140513	200.583
210.0000	-0.0665588	198.946
209.9000	-0.11538	198.728
209.8000	-0.113587	213.774
209.7000	0.0644908	217.373
209.6000	-0.14194	224.278
209.5000	-0.269738	220.298
209.4000	-0.170849	206.58
209.3000	-0.141047	192.57
209.2000	-0.209	182.393
209.1000	-0.179385	180.156
209.0000	-0.284811	170.19
208.9000	-0.40706	154.725
208.8000	-0.188079	152.402
208.7000	0.0750519	152.588
208.6000	0.326044	152.714
208.5000	0.519498	152.824
208.4000	0.556744	152.929
208.3000	0.549077	153.032
208.2000	0.481433	153.136
208.1000	0.407395	163.71
208.0000	0.310753	169.113
207.9000	0.195277	181.045
207.8000	-0.0691193	198.786
207.7000	-0.308028	213.897
207.6000	-0.297072	224.644
207.5000	-0.166906	227.176
207.4000	-0.144386	231.366
207.3000	-0.232014	241.521
207.2000	-0.264543	242.643
207.1000	-0.329401	226.84
207.0000	-0.382318	205.798
206.9000	-0.332268	197.156
206.8000	-0.283229	200.369
206.7000	-0.336319	213.108
206.6000	-0.48241	229.144
206.5000	-0.568035	237.647
206.4000	-0.565425	231.653
206.3000	-0.63704	232.967
206.2000	-0.770354	250.362
206.1000	-0.924416	266.342
206.0000	-1.16584	265.224
205.9000	-1.32084	265.378
205.8000	-1.40243	265.58
205.7000	-1.37244	257.569
205.6000	-1.42224	264.69
205.5000	-1.46033	279.347
205.4000	-1.35211	289.517
205.3000	-1.55954	306.889
205.2000	-1.66557	323.511
205.1000	-1.70622	330.286
205.0000	-1.76236	342.064
204.9000	-1.76908	356.483
204.8000	-1.75024	373.715
204.7000	-1.70348	390.844
204.6000	-1.80626	405.46
204.5000	-1.54534	404.256
204.4000	-1.26856	404.567
204.3000	-1.17623	411.236
204.2000	-1.09154	417.995
204.1000	-1.03086	424.611
204.0000	-0.819374	424.512
203.9000	-0.725591	422.691
203.8000	-0.677731	423.084
203.7000	-0.773206	424.138
203.6000	-0.855682	424.487
203.5000	-0.705237	424.836
203.4000	-0.380823	425.191
203.3000	-0.186111	425.549
203.2000	-0.344011	425.903
203.1000	-0.417106	428.456
203.0000	-0.609561	428.744
202.9000	-0.786961	429.102
202.8000	-0.782758	429.468
202.7000	-0.766799	423.586
202.6000	-0.645331	415.141
202.5000	-0.690114	409.119
202.4000	-0.666603	409.029
202.3000	-0.614447	402.628
202.2000	-0.242117	401.457
202.1000	0.284521	401.874
202.0000	0.531572	402.245
201.9000	0.738938	405.212
201.8000	0.783398	414.64
201.7000	0.638878	425.74
201.6000	0.539951	424.453
201.5000	0.654748	428.65
201.4000	0.483787	434.53
201.3000	0.358958	434.751
201.2000	0.272838	435.153
201.1000	0.327791	435.557
201.0000	0.143834	429.336
200.9000	0.0445485	426.44
200.8000	0.195203	423.412
200.7000	0.255831	410.206
200.6000	0.353815	393.94
200.5000	0.457938	387.584
200.4000	0.513502	388.38
200.3000	0.384851	388.816
200.2000	0.291987	392.09
200.1000	0.396164	399.876
200.0000	0.490762	400.814
199.9000	0.582262	412.796
199.8000	0.762188	429.408
199.7000	0.887296	438.76
199.6000	1.02506	436.664
199.5000	1.27214	437.124
199.4000	1.63291	437.575
199.3000	1.72428	437.867
199.2000	1.47867	437.889
199.1000	1.10851	438.34
199.0000	0.920822	438.792
198.9000	0.904172	440.545
198.8000	0.812619	445.629
198.7000	0.627589	446.001
198.6000	0.773829	446.522
198.5000	0.951655	447.096
198.4000	1.14804	448.152
198.3000	1.3686	443.96
198.2000	1.46515	441.708
198.1000	1.33759	442.538
198.0000	1.36109	443.155
197.9000	1.46588	443.784
197.8000	1.235	444.43
197.7000	0.689419	445.103
197.6000	0.576357	445.683
197.5000	0.66905	448.989
197.4000	0.958801	454.827
197.3000	1.36061	454.861
197.2000	1.53649	455.491
197.1000	1.52611	455.845
197.0000	1.52583	456.397
196.9000	1.725	456.959
196.8000	1.91809	457.511
196.7000	2.22584	458.447
196.6000	2.30749	459.011
196.5000	2.55151	459.271
196.4000	2.39748	459.749
196.3000	2.47311	460.434
196.2000	2.8597	461.174
196.1000	2.89404	461.375
196.0000	3.07329	462.098
195.9000	3.12082	463.02
195.8000	3.21921	464.014
195.7000	3.074	465.215
195.6000	2.9648	466.752
195.5000	3.04709	468.048
195.4000	2.84173	469.681
195.3000	3.08474	471.566
195.2000	3.29183	473.361
195.1000	3.30145	474.859
195.0000	3.12735	476.3
194.9000	2.86229	477.637
194.8000	2.384	478.812
194.7000	2.2744	479.821
194.6000	2.2503	480.683
194.5000	2.2468	481.416
194.4000	2.2935	482.058
194.3000	1.95777	482.637
194.2000	1.94838	483.23
194.1000	1.97313	483.901
194.0000	2.32162	484.726
193.9000	2.48751	485.735
193.8000	2.51439	486.955
193.7000	2.36777	488.415
193.6000	2.38202	490.141
193.5000	2.44127	492.101
193.4000	2.44505	494.236
193.3000	2.1926	496.726
193.2000	2.30744	498.9
193.1000	2.47934	495.198
193.0000	2.77122	481.03
192.9000	2.7783	464.36
192.8000	2.66311	446.962
192.7000	2.4666	429.138
192.6000	2.40005	411.139
192.5000	2.65377	392.464
192.4000	2.94605	373.651
192.3000	3.23722	356.943
192.2000	3.56146	353.984
192.1000	3.57983	375.658
192.0000	3.75249	396.55
191.9000	3.68963	417.377
191.8000	3.74556	427.515
191.7000	3.63301	430.289
191.6000	3.39062	431.75
191.5000	3.1314	433.168
191.4000	2.70748	434.848
191.3000	2.27841	433.571
191.2000	2.04705	418.892
191.1000	2.28804	404.535
191.0000	2.65592	398.002
190.9000	2.2839	409.68
190.8000	2.48692	429.527
190.7000	2.47742	457.162
190.6000	3.06188	484.294
190.5000	4.06439	499.118
190.4000	4.7036	501.473
190.3000	4.38288	513.087
190.2000	4.26719	518.68
190.1000	5.04128	535.739
190.0000	5.25952	539.051

##### Extended Information
[Comments]
Sample name	ACE2_3uL_0.12uM
Comment
User
Division
Company	CSIR-IMTECH

[Detailed Information]
Creation date	2/26/2024 1:16 PM

Data array type	Linear data array * 2
Horizontal axis	Wavelength [nm]
Vertical axis(1)	CD [mdeg]
Vertical axis(2)	HT [V]
Start	350 nm
End	190 nm
Data interval	0.1 nm
Data points	1601    

[Measurement Information]
Instrument Name	JASCO CD
Model Name	J-815
Serial No.	B063061168

Accessory	PTC-423S
Accessory S/N	C013945-01
  Temperature	37.41 C
  Control Sonsor	Cell
  Monitor Sensor	Cell
  Start Mode	Start immediately
  Cell Length	10 mm

Measurement date	2/26/2024 1:16 PM

Photometric Mode	CD, HT
Measure Range	350 - 190 nm
Data pitch	0.1 nm
Sensitivity	Standard
D.I.T.	1 sec
Bandwidth	1.00 nm
Start Mode	Immediately
Scanning Speed	50 nm/min
Baseline Correction	Baseline
Shutter Control	Manual
CD Detector	PMT
PMT Voltage	Auto
Accumulations	3
Concentration	0.12 umol/L

