TITLE	ACE2_3uL_0.12uM
DATA TYPE	
ORIGIN	JASCO
OWNER	
DATE	24/02/26
TIME	13:18:32
SPECTROMETER/DATA SYSTEM	
LOCALE	1033
RESOLUTION	
DELTAX	-0.1
XUNITS	NANOMETERS
YUNITS	Mol. Ellip.
Y2UNITS	HT [V]
FIRSTX	  350.0000
LASTX	  190.0000
NPOINTS	    1601
FIRSTY	8809035.00000
MAXY	43829360.00000
MINY	-15052134.00000
XYDATA
350.0000	8.80904E+006	473.556
349.9000	9.22853E+006	472.934
349.8000	1.24958E+007	472.085
349.7000	1.4399E+007	471.22
349.6000	1.40327E+007	470.59
349.5000	9.7534E+006	470.033
349.4000	5.12569E+006	469.124
349.3000	1.85522E+006	468.486
349.2000	743595	467.959
349.1000	-175968	467.159
349.0000	729658	466.54
348.9000	1.35149E+006	465.979
348.8000	876211	465.069
348.7000	176392	464.136
348.6000	1.92929E+006	463.471
348.5000	4.31913E+006	462.914
348.4000	6.54359E+006	462.03
348.3000	6.71392E+006	461.345
348.2000	6.80506E+006	460.143
348.1000	6.61568E+006	455.796
348.0000	7.27334E+006	455.229
347.9000	9.18756E+006	454.678
347.8000	7.97128E+006	453.185
347.7000	7.50265E+006	448.924
347.6000	8.00087E+006	443.424
347.5000	8.31998E+006	428.02
347.4000	6.54551E+006	410.523
347.3000	6.24193E+006	396.609
347.2000	5.96675E+006	378.679
347.1000	6.00939E+006	364.53
347.0000	6.95431E+006	359.835
346.9000	6.37764E+006	361.271
346.8000	5.07592E+006	352.556
346.7000	3.01166E+006	348.312
346.6000	2.19246E+006	347.501
346.5000	2.76026E+006	347.967
346.4000	1.0478E+006	366.382
346.3000	-927404	382.287
346.2000	-2.71841E+006	388.844
346.1000	-2.2788E+006	387.787
346.0000	-2.07366E+006	393.541
345.9000	-3.04629E+006	408.277
345.8000	-2.58469E+006	424.703
345.7000	-4.42757E+006	440.941
345.6000	-5.72072E+006	443.424
345.5000	-6.02319E+006	442.515
345.4000	-2.66813E+006	441.973
345.3000	-2.26823E+006	441.509
345.2000	-3.27942E+006	440.778
345.1000	-634808	440.041
345.0000	1.7539E+006	439.508
344.9000	3.85867E+006	438.832
344.8000	5.41469E+006	438.143
344.7000	7.68572E+006	437.614
344.6000	7.92882E+006	436.944
344.5000	7.59076E+006	436.262
344.4000	8.90194E+006	435.766
344.3000	8.651E+006	435.108
344.2000	7.71662E+006	434.43
344.1000	6.46796E+006	428.859
344.0000	6.09527E+006	428.47
343.9000	5.11633E+006	427.803
343.8000	3.57148E+006	427.297
343.7000	3.37363E+006	426.853
343.6000	3.9357E+006	426.187
343.5000	3.29092E+006	425.698
343.4000	1.66089E+006	425.28
343.3000	2.22061E+006	428.695
343.2000	2.87257E+006	428.926
343.1000	3.10644E+006	428.476
343.0000	3.84261E+006	427.861
342.9000	3.93907E+006	427.232
342.8000	2.88986E+006	426.756
342.7000	1.33595E+006	426.132
342.6000	1.6319E+006	425.501
342.5000	681229	425.05
342.4000	1.00023E+006	424.486
342.3000	2.85522E+006	423.917
342.2000	3.67295E+006	423.482
342.1000	2.57793E+006	422.92
342.0000	1.32039E+006	421.339
341.9000	1.04218E+006	409.554
341.8000	1.915E+006	393.524
341.7000	2.5051E+006	376.542
341.6000	2.42385E+006	359.474
341.5000	710958	342.279
341.4000	1.29554E+006	325.057
341.3000	2.89888E+006	307.967
341.2000	4.18501E+006	290.804
341.1000	5.82839E+006	281.421
341.0000	5.10162E+006	277.541
340.9000	4.81065E+006	264.882
340.8000	5.1818E+006	248.993
340.7000	5.40632E+006	243.343
340.6000	4.67335E+006	231.596
340.5000	3.24334E+006	215.98
340.4000	3.05185E+006	199.567
340.3000	3.59074E+006	182.929
340.2000	4.70156E+006	167.42
340.1000	6.91984E+006	176.576
340.0000	6.20044E+006	191.073
339.9000	5.99828E+006	200.193
339.8000	5.84118E+006	207.97
339.7000	5.15051E+006	222.173
339.6000	4.43658E+006	237.806
339.5000	3.65297E+006	253.823
339.4000	2.24351E+006	269.824
339.3000	354996	278.084
339.2000	1.1942E+006	280.296
339.1000	2.35566E+006	285.87
339.0000	2.20066E+006	294.508
338.9000	3.14474E+006	296.139
338.8000	4.313E+006	296.29
338.7000	4.03388E+006	296.081
338.6000	4.66044E+006	295.754
338.5000	5.50346E+006	293.237
338.4000	5.72255E+006	305.053
338.3000	4.41839E+006	315.792
338.2000	4.1754E+006	305.805
338.1000	4.94853E+006	303.043
338.0000	5.72362E+006	302.169
337.9000	5.81201E+006	301.744
337.8000	4.73173E+006	301.507
337.7000	4.29505E+006	301.234
337.6000	3.73411E+006	289.552
337.5000	2.47563E+006	274.213
337.4000	1.5993E+006	268.979
337.3000	327165	267.566
337.2000	-1.03671E+006	266.987
337.1000	-1.48762E+006	266.645
337.0000	-888163	266.352
336.9000	-295520	267.032
336.8000	-469827	273.548
336.7000	-857552	282.558
336.6000	-477041	284.314
336.5000	-444489	284.529
336.4000	-1.1227E+006	284.453
336.3000	-2.31471E+006	284.224
336.2000	-4.10198E+006	283.965
336.1000	-4.19245E+006	283.146
336.0000	-4.73556E+006	281.652
335.9000	-2.67603E+006	267.904
335.8000	-1.66008E+006	264.271
335.7000	-1.35908E+006	263.23
335.6000	-306405	262.784
335.5000	873422	263.002
335.4000	3.08472E+006	274.841
335.3000	5.33121E+006	277.476
335.2000	6.72786E+006	277.9
335.1000	6.38824E+006	277.837
335.0000	5.1656E+006	277.725
334.9000	5.46903E+006	277.526
334.8000	4.86947E+006	277.306
334.7000	4.3131E+006	277.048
334.6000	3.72313E+006	266.609
334.5000	2.31043E+006	261.642
334.4000	941976	260.285
334.3000	1.30035E+006	259.788
334.2000	1.04652E+006	259.481
334.1000	163294	259.188
334.0000	764932	258.944
333.9000	1.17336E+006	258.768
333.8000	2.51157E+006	258.552
333.7000	3.2166E+006	258.331
333.6000	2.81659E+006	258.082
333.5000	1.97323E+006	257.86
333.4000	1.60555E+006	257.633
333.3000	2.26355E+006	257.408
333.2000	2.21191E+006	257.214
333.1000	2.02126E+006	257.018
333.0000	885425	256.796
332.9000	-466597	256.594
332.8000	-1.19739E+006	262.652
332.7000	-1.32551E+006	264.404
332.6000	-1.46662E+006	264.653
332.5000	-2.23078E+006	264.531
332.4000	-2.43819E+006	264.355
332.3000	-1.83849E+006	264.156
332.2000	678118	263.935
332.1000	1.4881E+006	263.732
332.0000	2.63326E+006	258.867
331.9000	2.97891E+006	255.437
331.8000	2.7346E+006	260.636
331.7000	3.69743E+006	266.252
331.6000	4.11912E+006	267.385
331.5000	4.02806E+006	267.428
331.4000	2.47315E+006	267.288
331.3000	1.05559E+006	267.113
331.2000	-577155	266.917
331.1000	-1.22105E+006	266.744
331.0000	-3602.77	265.278
330.9000	449507	255.356
330.8000	190413	252.967
330.7000	678516	252.255
330.6000	1.08005E+006	251.962
330.5000	1.8907E+006	251.761
330.4000	3.64439E+006	251.558
330.3000	4.31606E+006	251.382
330.2000	3.37504E+006	251.141
330.1000	2.53314E+006	250.945
330.0000	2.44206E+006	250.775
329.9000	3.18732E+006	250.575
329.8000	2.04675E+006	261.232
329.7000	1.47899E+006	266.668
329.6000	372382	267.758
329.5000	-106701	267.896
329.4000	31712.8	267.776
329.3000	-657230	280.189
329.2000	-1.00594E+006	294.908
329.1000	-1.84868E+006	309.56
329.0000	-2.62802E+006	309.468
328.9000	-3.19614E+006	302.853
328.8000	-2.80611E+006	301.011
328.7000	-3.37248E+006	301.592
328.6000	-3.00337E+006	312.413
328.5000	-3.35828E+006	307.477
328.4000	-3.81876E+006	292.641
328.3000	-2.85881E+006	290.502
328.2000	-1.52381E+006	286.056
328.1000	-818202	284.73
328.0000	-696606	284.345
327.9000	-10571	284.082
327.8000	845540	273.752
327.7000	1.75523E+006	269.402
327.6000	1.95412E+006	268.326
327.5000	532752	260.306
327.4000	-1.28754E+006	249.547
327.3000	-1.51885E+006	246.911
327.2000	-2.15463E+006	246.152
327.1000	-2.68202E+006	245.92
327.0000	-3.14958E+006	245.837
326.9000	-2.83824E+006	245.661
326.8000	-1.86232E+006	245.477
326.7000	-792991	245.294
326.6000	-302828	245.197
326.5000	-1.11038E+006	245.139
326.4000	-826806	244.954
326.3000	-862562	244.747
326.2000	-2.29632E+006	244.535
326.1000	-2.4168E+006	244.407
326.0000	-2.84174E+006	244.189
325.9000	-2.03548E+006	243.975
325.8000	-1.45382E+006	243.758
325.7000	-251007	243.256
325.6000	-191362	243.091
325.5000	87280.3	242.922
325.4000	1.61694E+006	242.756
325.3000	1.38542E+006	242.581
325.2000	983709	242.502
325.1000	893911	242.472
325.0000	426636	242.343
324.9000	505202	242.26
324.8000	726352	242.373
324.7000	1.34471E+006	242.28
324.6000	1.7419E+006	242.213
324.5000	1.6988E+006	242.048
324.4000	2.5404E+006	241.879
324.3000	2.20245E+006	241.678
324.2000	1.501E+006	241.544
324.1000	1.03362E+006	241.105
324.0000	753098	235.23
323.9000	323257	232.921
323.8000	-493232	227.114
323.7000	-771832	223.332
323.6000	-476574	211.474
323.5000	-1.03548E+006	197.649
323.4000	-546256	183.345
323.3000	-19421	169.006
323.2000	-111855	170.203
323.1000	307015	172.383
323.0000	722809	178.513
322.9000	775163	179.695
322.8000	347341	189.589
322.7000	296945	202.708
322.6000	378070	216.553
322.5000	579732	229.745
322.4000	858561	238.359
322.3000	246396	237.627
322.2000	-198703	237.381
322.1000	-186072	237.178
322.0000	355691	236.973
321.9000	1.0016E+006	236.82
321.8000	661875	236.631
321.7000	1.06374E+006	237.094
321.6000	870488	237.228
321.5000	1.38209E+006	237.078
321.4000	1.35559E+006	236.995
321.3000	1.8725E+006	236.905
321.2000	1.90742E+006	236.833
321.1000	999425	236.731
321.0000	244446	236.679
320.9000	-421744	236.581
320.8000	-997509	236.482
320.7000	-645082	236.373
320.6000	-562439	236.265
320.5000	-225737	236.191
320.4000	-126343	236.044
320.3000	542713	235.88
320.2000	2.07767E+006	232.118
320.1000	3.84927E+006	232.678
320.0000	4.72149E+006	247.334
319.9000	4.47125E+006	260.875
319.8000	4.2499E+006	274.668
319.7000	4.33532E+006	288.226
319.6000	3.20062E+006	302.115
319.5000	2.25563E+006	316.043
319.4000	1.57077E+006	333.681
319.3000	340068	344.177
319.2000	-672540	335.775
319.1000	-659112	322.68
319.0000	-389226	308.772
318.9000	-429026	294.988
318.8000	-139389	280.97
318.7000	479033	266.795
318.6000	923911	252.606
318.5000	1.11423E+006	239.383
318.4000	1.39191E+006	234.893
318.3000	1.08477E+006	233.83
318.2000	351554	233.512
318.1000	-489231	233.372
318.0000	-180198	233.242
317.9000	-302641	233.17
317.8000	-438199	233.099
317.7000	-416090	233.045
317.6000	-801849	232.941
317.5000	-1.14938E+006	232.853
317.4000	-805401	232.74
317.3000	215759	232.615
317.2000	-41325.9	232.474
317.1000	319010	232.345
317.0000	830214	232.182
316.9000	869412	232.022
316.8000	782895	231.875
316.7000	1.42681E+006	231.745
316.6000	1.36746E+006	231.618
316.5000	730142	231.511
316.4000	925793	231.382
316.3000	191778	231.268
316.2000	-56466	231.176
316.1000	-711899	231.104
316.0000	-1.08865E+006	230.882
315.9000	-1.26722E+006	230.313
315.8000	-1.24453E+006	230.223
315.7000	-785175	230.112
315.6000	-538618	230.039
315.5000	-517697	229.928
315.4000	-409504	229.827
315.3000	-250693	229.687
315.2000	74030.6	229.541
315.1000	-16827.1	226.205
315.0000	655433	214.745
314.9000	1.61755E+006	201.485
314.8000	1.48259E+006	187.839
314.7000	1.28582E+006	174.105
314.6000	716934	160.365
314.5000	741391	146.643
314.4000	1.50294E+006	132.932
314.3000	1.69557E+006	120.463
314.2000	1.27584E+006	116.539
314.1000	291629	128.293
314.0000	105218	141.709
313.9000	336041	155.196
313.8000	791228	168.345
313.7000	1.09782E+006	177.262
313.6000	951013	187.269
313.5000	726759	200.821
313.4000	932575	214.342
313.3000	333981	219.556
313.2000	-654170	210.842
313.1000	-1.10495E+006	198.884
313.0000	-1.55212E+006	185.716
312.9000	-1.35856E+006	174.348
312.8000	-1.14944E+006	167.197
312.7000	-473582	153.546
312.6000	135557	142.298
312.5000	766042	129.255
312.4000	2.2716E+006	120.948
312.3000	3.3588E+006	118.58
312.2000	3.89168E+006	117.787
312.1000	4.42906E+006	117.544
312.0000	4.28196E+006	117.433
311.9000	4.36824E+006	117.354
311.8000	4.33896E+006	115.272
311.7000	3.93974E+006	114.3
311.6000	3.42673E+006	114.026
311.5000	2.71709E+006	113.925
311.4000	2.62451E+006	113.862
311.3000	2.70655E+006	117.547
311.2000	3.14957E+006	131.632
311.1000	2.89035E+006	145.046
311.0000	2.46806E+006	158.447
310.9000	2.91944E+006	171.854
310.8000	3.22503E+006	185.233
310.7000	3.54419E+006	195.56
310.6000	3.92082E+006	198.138
310.5000	4.24256E+006	198.71
310.4000	3.46141E+006	185.469
310.3000	2.97606E+006	171.987
310.2000	2.89326E+006	158.536
310.1000	3.14745E+006	145.077
310.0000	3.07898E+006	131.623
309.9000	3.79144E+006	118.991
309.8000	3.68561E+006	114.63
309.7000	3.27545E+006	113.605
309.6000	3.33685E+006	113.344
309.5000	3.8809E+006	113.26
309.4000	4.2583E+006	113.214
309.3000	4.75082E+006	113.148
309.2000	5.18381E+006	113.101
309.1000	4.54384E+006	113.051
309.0000	4.56255E+006	113.009
308.9000	4.7717E+006	122.545
308.8000	4.59114E+006	130.518
308.7000	4.52772E+006	137.551
308.6000	4.31599E+006	151.157
308.5000	3.63297E+006	160.699
308.4000	2.85953E+006	162.966
308.3000	3.14979E+006	163.482
308.2000	3.34619E+006	163.566
308.1000	3.04847E+006	158.843
308.0000	3.42356E+006	147.435
307.9000	3.77566E+006	145.58
307.8000	4.41039E+006	141.946
307.7000	4.42752E+006	132.217
307.6000	4.10595E+006	128.948
307.5000	3.82462E+006	128.157
307.4000	3.30394E+006	127.948
307.3000	3.49941E+006	127.879
307.2000	3.82231E+006	127.839
307.1000	3.51692E+006	127.785
307.0000	2.76331E+006	117.474
306.9000	2.68584E+006	113.464
306.8000	2.67305E+006	126.032
306.7000	1.95575E+006	139.09
306.6000	1.59298E+006	152.266
306.5000	1.01359E+006	165.481
306.4000	368390	178.669
306.3000	77404.4	191.877
306.2000	743239	205.077
306.1000	546375	218.28
306.0000	207986	222.512
305.9000	166965	222.341
305.8000	681788	228.366
305.7000	1.61448E+006	229.749
305.6000	2.00923E+006	230.026
305.5000	1.69835E+006	230.06
305.4000	1.35281E+006	230.053
305.3000	1.59614E+006	238.92
305.2000	2.2402E+006	241.454
305.1000	2.90575E+006	242.014
305.0000	3.21768E+006	237.169
304.9000	3.02177E+006	234.727
304.8000	2.36235E+006	234.14
304.7000	3.51429E+006	233.97
304.6000	4.02114E+006	233.859
304.5000	3.92287E+006	227.022
304.4000	3.70465E+006	222.73
304.3000	3.82796E+006	221.672
304.2000	3.72423E+006	221.393
304.1000	3.99428E+006	221.299
304.0000	4.57626E+006	221.253
303.9000	3.94738E+006	221.179
303.8000	3.00919E+006	221.122
303.7000	2.37991E+006	221.085
303.6000	1.88083E+006	221.008
303.5000	1.595E+006	223.186
303.4000	1.48893E+006	223.826
303.3000	1.09244E+006	223.901
303.2000	-33111.6	223.86
303.1000	-519324	223.816
303.0000	-937246	223.785
302.9000	-544112	223.714
302.8000	-567415	223.664
302.7000	-1.43593E+006	222.446
302.6000	-1.86946E+006	230.841
302.5000	-2.81149E+006	244.471
302.4000	-2.75589E+006	257.507
302.3000	-2.71139E+006	270.526
302.2000	-2.83756E+006	283.521
302.1000	-2.86913E+006	295.992
302.0000	-3.16481E+006	307.146
301.9000	-2.49595E+006	310.221
301.8000	-2.11181E+006	303.285
301.7000	-1.63177E+006	291.458
301.6000	-1.16193E+006	278.275
301.5000	-182232	265.15
301.4000	616981	252.02
301.3000	1.01011E+006	239.452
301.2000	903888	226.558
301.1000	1.3715E+006	221.276
301.0000	1.33425E+006	222.681
300.9000	1.33842E+006	229.786
300.8000	1.88198E+006	235.571
300.7000	1.82411E+006	244.946
300.6000	1.63563E+006	247.023
300.5000	2.14442E+006	247.481
300.4000	2.45921E+006	247.574
300.3000	2.11327E+006	247.549
300.2000	2.47032E+006	247.507
300.1000	2.96854E+006	249.884
300.0000	3.17791E+006	256.715
299.9000	2.91161E+006	247.551
299.8000	2.28734E+006	244.701
299.7000	1.50475E+006	244.01
299.6000	841963	243.812
299.5000	1.1399E+006	243.739
299.4000	999442	243.701
299.3000	743442	236.278
299.2000	303370	225.489
299.1000	-15284.2	220.419
299.0000	770942	219.23
298.9000	964288	218.926
298.8000	1.079E+006	218.835
298.7000	933728	218.773
298.6000	296555	225.501
298.5000	-344747	229.602
298.4000	-1.13021E+006	230.505
298.3000	-1.04262E+006	230.689
298.2000	-1.23879E+006	230.707
298.1000	-983336	230.681
298.0000	-510593	230.649
297.9000	-51744.2	230.621
297.8000	-195643	227.326
297.7000	63629.1	220.406
297.6000	606698	218.836
297.5000	963296	218.432
297.4000	954658	218.315
297.3000	237766	218.267
297.2000	-551800	218.214
297.1000	-1.18974E+006	218.176
297.0000	-1.44313E+006	218.142
296.9000	-1.66828E+006	218.095
296.8000	-1.80033E+006	218.062
296.7000	-1.71252E+006	218.036
296.6000	-2.23665E+006	218.012
296.5000	-2.20577E+006	217.978
296.4000	-1.56689E+006	217.952
296.3000	-1.49456E+006	217.937
296.2000	-1.5215E+006	217.907
296.1000	-1.23842E+006	217.885
296.0000	-798069	217.869
295.9000	-320358	217.841
295.8000	132217	217.803
295.7000	491265	217.778
295.6000	288061	217.752
295.5000	134701	217.714
295.4000	122121	217.668
295.3000	480415	217.64
295.2000	639784	217.602
295.1000	128013	217.553
295.0000	-790371	217.523
294.9000	-905618	217.488
294.8000	-1.1732E+006	217.443
294.7000	-1.31084E+006	217.415
294.6000	-1.53155E+006	217.392
294.5000	-1.40897E+006	217.364
294.4000	-1.62315E+006	217.343
294.3000	-1.68176E+006	217.326
294.2000	-1.21896E+006	217.295
294.1000	-1.05584E+006	217.271
294.0000	-727183	217.254
293.9000	-371085	217.222
293.8000	318714	217.201
293.7000	426042	217.186
293.6000	436579	217.15
293.5000	298606	217.11
293.4000	329497	217.094
293.3000	316137	217.072
293.2000	-69732.7	217.04
293.1000	-381292	217.028
293.0000	-665173	217.001
292.9000	-717901	216.969
292.8000	-1.02654E+006	216.955
292.7000	-916231	216.939
292.6000	-855560	216.917
292.5000	-372425	216.878
292.4000	-465605	216.856
292.3000	-363854	216.823
292.2000	-620787	216.792
292.1000	-1.3291E+006	216.775
292.0000	-1.96305E+006	216.748
291.9000	-2.09393E+006	216.713
291.8000	-2.30237E+006	216.681
291.7000	-3.16396E+006	216.666
291.6000	-3.36784E+006	216.638
291.5000	-3.59317E+006	216.609
291.4000	-3.32568E+006	216.593
291.3000	-2.46556E+006	216.558
291.2000	-1.68296E+006	216.517
291.1000	-856705	216.477
291.0000	-472268	216.447
290.9000	341407	216.405
290.8000	1.41118E+006	216.351
290.7000	1.78939E+006	216.292
290.6000	2.24636E+006	216.225
290.5000	2.55484E+006	216.142
290.4000	3.00981E+006	216.058
290.3000	3.46301E+006	215.988
290.2000	3.67603E+006	215.901
290.1000	3.15235E+006	215.81
290.0000	2.59957E+006	215.725
289.9000	2.24E+006	215.665
289.8000	2.26226E+006	215.613
289.7000	2.1485E+006	215.574
289.6000	2.03155E+006	215.564
289.5000	1.8463E+006	215.575
289.4000	1.78721E+006	215.597
289.3000	2.00219E+006	215.642
289.2000	1.90166E+006	215.695
289.1000	1.93908E+006	215.762
289.0000	2.27354E+006	215.83
288.9000	1.94398E+006	215.894
288.8000	1.64008E+006	216.127
288.7000	1.40383E+006	216.455
288.6000	1.13803E+006	216.548
288.5000	711127	216.588
288.4000	874117	216.608
288.3000	1.07481E+006	216.622
288.2000	483992	216.623
288.1000	-221057	216.617
288.0000	-251541	216.606
287.9000	283017	216.181
287.8000	935610	216.072
287.7000	1.78779E+006	216.04
287.6000	1.86312E+006	216.019
287.5000	1.7844E+006	215.997
287.4000	2.2208E+006	215.985
287.3000	2.8701E+006	215.968
287.2000	2.83845E+006	215.957
287.1000	2.51023E+006	216.068
287.0000	2.11063E+006	216.11
286.9000	1.65681E+006	216.108
286.8000	1.74289E+006	216.097
286.7000	1.30927E+006	216.086
286.6000	804545	216.059
286.5000	998442	216.049
286.4000	1.33856E+006	216.045
286.3000	2.20568E+006	215.976
286.2000	1.91071E+006	215.859
286.1000	1.09656E+006	215.819
286.0000	954454	215.81
285.9000	575740	215.803
285.8000	1.29282E+006	215.799
285.7000	1.1187E+006	215.788
285.6000	870997	215.767
285.5000	638428	215.76
285.4000	874981	215.762
285.3000	1.9115E+006	215.762
285.2000	2.21163E+006	215.757
285.1000	2.40306E+006	215.743
285.0000	2.39103E+006	215.742
284.9000	2.38534E+006	215.742
284.8000	2.73282E+006	215.743
284.7000	2.57593E+006	215.736
284.6000	1.89727E+006	215.721
284.5000	1.09864E+006	215.722
284.4000	851729	215.726
284.3000	522452	215.726
284.2000	947155	215.727
284.1000	1.08943E+006	215.715
284.0000	1.28543E+006	215.703
283.9000	1.57786E+006	215.704
283.8000	1.60718E+006	215.709
283.7000	2.10512E+006	215.707
283.6000	2.07893E+006	215.696
283.5000	2.76425E+006	215.696
283.4000	3.2224E+006	215.69
283.3000	3.38665E+006	215.699
283.2000	3.37557E+006	215.716
283.1000	3.31462E+006	215.72
283.0000	3.8679E+006	215.717
282.9000	4.38853E+006	215.712
282.8000	4.29681E+006	215.712
282.7000	3.56117E+006	215.718
282.6000	2.75779E+006	215.726
282.5000	2.57749E+006	215.731
282.4000	2.5877E+006	215.726
282.3000	2.56009E+006	215.724
282.2000	2.02489E+006	215.721
282.1000	942688	215.73
282.0000	241843	215.737
281.9000	219354	215.738
281.8000	334540	215.738
281.7000	340907	215.736
281.6000	267648	215.737
281.5000	-252016	215.733
281.4000	-187785	215.745
281.3000	198169	215.755
281.2000	1.18163E+006	215.755
281.1000	1.97003E+006	215.752
281.0000	1.74228E+006	215.748
280.9000	1.78713E+006	215.745
280.8000	2.16177E+006	215.739
280.7000	2.13308E+006	215.735
280.6000	2.12308E+006	215.736
280.5000	2.37302E+006	215.728
280.4000	2.60316E+006	215.723
280.3000	2.22182E+006	215.716
280.2000	3.2458E+006	215.709
280.1000	3.69639E+006	215.703
280.0000	3.41599E+006	215.697
279.9000	3.44243E+006	215.693
279.8000	3.91366E+006	215.681
279.7000	4.44788E+006	215.677
279.6000	4.81228E+006	215.672
279.5000	4.72301E+006	215.67
279.4000	4.24438E+006	215.669
279.3000	3.63742E+006	215.668
279.2000	3.87722E+006	215.671
279.1000	4.33088E+006	215.671
279.0000	4.04143E+006	215.671
278.9000	3.75247E+006	215.668
278.8000	2.87957E+006	215.672
278.7000	2.67659E+006	215.677
278.6000	2.53534E+006	215.683
278.5000	2.32938E+006	215.691
278.4000	2.56569E+006	215.696
278.3000	1.37967E+006	215.702
278.2000	947689	215.711
278.1000	1.14477E+006	215.718
278.0000	1.57941E+006	215.72
277.9000	1.3333E+006	215.719
277.8000	922089	215.715
277.7000	1.05011E+006	215.711
277.6000	1.04221E+006	215.717
277.5000	1.22322E+006	215.728
277.4000	1.531E+006	215.737
277.3000	1.10218E+006	215.745
277.2000	464689	215.751
277.1000	83313	215.758
277.0000	-41241.1	215.765
276.9000	-79769.6	215.772
276.8000	24303.9	215.771
276.7000	275514	215.764
276.6000	913391	219.988
276.5000	1.18797E+006	226.002
276.4000	1.39403E+006	227.355
276.3000	1.84508E+006	227.668
276.2000	2.17886E+006	233.155
276.1000	2.20269E+006	238.106
276.0000	1.59114E+006	239.23
275.9000	1.177E+006	239.502
275.8000	975232	239.472
275.7000	966500	230.468
275.6000	820185	228.276
275.5000	847193	227.774
275.4000	1.09055E+006	226.308
275.3000	845947	218.213
275.2000	1.17819E+006	216.412
275.1000	1.77123E+006	215.999
275.0000	1.9067E+006	215.905
274.9000	2.1203E+006	215.884
274.8000	2.15494E+006	215.885
274.7000	1.98794E+006	215.888
274.6000	1.75136E+006	215.894
274.5000	2.00514E+006	215.899
274.4000	2.43843E+006	215.909
274.3000	2.26401E+006	215.916
274.2000	2.42638E+006	215.927
274.1000	2.09365E+006	215.938
274.0000	1.65175E+006	215.949
273.9000	1.21991E+006	215.959
273.8000	215378	215.97
273.7000	425898	215.982
273.6000	588303	215.989
273.5000	509313	215.992
273.4000	77624.9	215.995
273.3000	-470217	216
273.2000	-527912	216.004
273.1000	-270555	216.012
273.0000	-128818	216.02
272.9000	-704659	216.026
272.8000	-962965	216.03
272.7000	-1.0424E+006	216.037
272.6000	-965246	216.045
272.5000	45233.8	216.055
272.4000	1.04707E+006	216.066
272.3000	1.24743E+006	216.077
272.2000	1.73064E+006	216.09
272.1000	2.2802E+006	216.103
272.0000	2.28561E+006	216.122
271.9000	2.33442E+006	216.142
271.8000	2.2665E+006	216.157
271.7000	1.6925E+006	216.167
271.6000	554538	216.175
271.5000	-8087.16	216.184
271.4000	325097	216.192
271.3000	518723	216.196
271.2000	382190	216.194
271.1000	425101	216.194
271.0000	780199	216.196
270.9000	498522	216.191
270.8000	580224	216.188
270.7000	319621	216.182
270.6000	381427	216.177
270.5000	233256	216.171
270.4000	130098	216.17
270.3000	385284	216.171
270.2000	223838	216.173
270.1000	353021	216.18
270.0000	741297	216.191
269.9000	1.42767E+006	216.203
269.8000	1.72803E+006	216.211
269.7000	1.98678E+006	216.218
269.6000	2.73175E+006	216.229
269.5000	3.02187E+006	216.24
269.4000	2.98065E+006	216.238
269.3000	3.08E+006	216.235
269.2000	2.89055E+006	216.235
269.1000	2.53385E+006	216.236
269.0000	3.3222E+006	216.247
268.9000	2.8023E+006	216.262
268.8000	2.14118E+006	216.272
268.7000	1.71995E+006	216.283
268.6000	1.59587E+006	216.308
268.5000	1.1333E+006	216.34
268.4000	1.04684E+006	216.377
268.3000	1.36701E+006	216.406
268.2000	864665	216.43
268.1000	1.09079E+006	216.453
268.0000	1.85095E+006	216.484
267.9000	1.9365E+006	216.518
267.8000	1.74759E+006	216.552
267.7000	1.77183E+006	216.586
267.6000	1.26311E+006	216.617
267.5000	1.05448E+006	216.654
267.4000	927616	216.68
267.3000	887138	216.709
267.2000	805155	224.985
267.1000	405723	227.94
267.0000	542679	228.647
266.9000	657179	228.831
266.8000	1.00951E+006	228.897
266.7000	831231	237.085
266.6000	473523	240.096
266.5000	253482	240.823
266.4000	-557607	235.235
266.3000	-180011	230.46
266.2000	161667	229.392
266.1000	922038	229.166
266.0000	1.7878E+006	229.124
265.9000	2.28754E+006	223.492
265.8000	3.45637E+006	218.585
265.7000	3.76912E+006	217.493
265.6000	4.77714E+006	217.271
265.5000	4.71631E+006	217.248
265.4000	4.88636E+006	217.266
265.3000	5.06113E+006	217.291
265.2000	4.39991E+006	217.325
265.1000	3.90215E+006	217.369
265.0000	3.60174E+006	217.409
264.9000	3.59846E+006	217.458
264.8000	2.96188E+006	217.492
264.7000	2.50145E+006	217.527
264.6000	1.94912E+006	217.574
264.5000	884221	217.622
264.4000	298631	217.67
264.3000	184708	217.704
264.2000	340839	217.746
264.1000	162108	217.79
264.0000	206350	217.838
263.9000	296953	217.89
263.8000	646354	217.934
263.7000	387819	217.975
263.6000	441920	218.018
263.5000	264579	218.064
263.4000	172653	218.116
263.3000	-114670	218.145
263.2000	-209308	218.179
263.1000	51905.3	218.219
263.0000	981352	218.256
262.9000	1.78425E+006	218.286
262.8000	2.26459E+006	218.318
262.7000	2.90513E+006	218.353
262.6000	3.11045E+006	218.397
262.5000	2.957E+006	218.452
262.4000	3.00433E+006	218.5
262.3000	3.08335E+006	218.541
262.2000	2.99121E+006	218.583
262.1000	2.82617E+006	218.642
262.0000	2.781E+006	218.692
261.9000	2.81582E+006	218.744
261.8000	2.52296E+006	218.794
261.7000	2.3184E+006	218.83
261.6000	2.34801E+006	218.868
261.5000	2.27831E+006	218.913
261.4000	2.06733E+006	218.961
261.3000	1.98129E+006	218.998
261.2000	1.51486E+006	219.044
261.1000	1.24113E+006	219.095
261.0000	1.25859E+006	219.152
260.9000	1.80312E+006	219.207
260.8000	1.75203E+006	219.271
260.7000	1.76178E+006	219.334
260.6000	1.29055E+006	219.387
260.5000	1.37336E+006	219.449
260.4000	1.27047E+006	219.514
260.3000	1.14986E+006	219.578
260.2000	1.40034E+006	219.635
260.1000	1.00316E+006	219.692
260.0000	309601	219.75
259.9000	192702	219.8
259.8000	150401	219.859
259.7000	562058	219.919
259.6000	1.00492E+006	219.97
259.5000	1.49829E+006	220.02
259.4000	1.6969E+006	220.071
259.3000	2.14829E+006	220.119
259.2000	2.67374E+006	220.167
259.1000	3.17876E+006	220.217
259.0000	3.26947E+006	220.257
258.9000	2.32237E+006	220.293
258.8000	1.50671E+006	220.331
258.7000	1.31274E+006	220.369
258.6000	1.15675E+006	220.416
258.5000	691003	220.465
258.4000	680076	220.51
258.3000	1.24864E+006	220.565
258.2000	1.84191E+006	220.625
258.1000	1.92595E+006	220.682
258.0000	2.08972E+006	220.746
257.9000	2.01086E+006	220.812
257.8000	2.07294E+006	220.867
257.7000	2.50656E+006	220.922
257.6000	2.22953E+006	220.974
257.5000	1.08687E+006	221.017
257.4000	-64214.1	221.067
257.3000	-450677	221.12
257.2000	-533464	221.174
257.1000	-41130.9	221.231
257.0000	313305	221.289
256.9000	3356.93	221.347
256.8000	-42004.1	221.399
256.7000	594262	221.459
256.6000	949224	221.521
256.5000	846278	221.579
256.4000	719240	221.64
256.3000	1.0457E+006	221.689
256.2000	1.21848E+006	221.735
256.1000	2.03522E+006	221.792
256.0000	2.35948E+006	221.844
255.9000	2.29732E+006	221.899
255.8000	2.33227E+006	221.946
255.7000	2.90661E+006	221.995
255.6000	3.47078E+006	222.039
255.5000	4.0736E+006	222.081
255.4000	3.60768E+006	222.131
255.3000	2.54178E+006	222.174
255.2000	1.98765E+006	222.227
255.1000	2.05305E+006	222.284
255.0000	2.41416E+006	222.349
254.9000	3.22768E+006	222.406
254.8000	3.50434E+006	222.459
254.7000	3.34049E+006	222.522
254.6000	3.17513E+006	222.589
254.5000	2.99732E+006	222.657
254.4000	2.49409E+006	222.713
254.3000	2.67777E+006	223.268
254.2000	2.47593E+006	237.442
254.1000	1.46217E+006	250.699
254.0000	936423	263.828
253.9000	57991.9	274.441
253.8000	-725386	278.651
253.7000	-551266	279.656
253.6000	-299216	279.929
253.5000	-851729	280.038
253.4000	-846795	269.969
253.3000	-645498	256.755
253.2000	-1.04196E+006	243.643
253.1000	-1.09407E+006	232.336
253.0000	-889138	225.441
252.9000	-739653	223.937
252.8000	-189607	223.624
252.7000	742281	223.586
252.6000	1.26475E+006	223.61
252.5000	970145	223.654
252.4000	1.19753E+006	223.704
252.3000	1.53716E+006	223.761
252.2000	2.03566E+006	223.814
252.1000	2.6034E+006	223.87
252.0000	2.44176E+006	223.921
251.9000	2.42408E+006	223.968
251.8000	2.5511E+006	224.022
251.7000	3.06637E+006	224.074
251.6000	3.31052E+006	224.133
251.5000	3.04446E+006	224.182
251.4000	2.9356E+006	224.246
251.3000	2.65297E+006	224.307
251.2000	2.78711E+006	224.358
251.1000	3.13403E+006	224.414
251.0000	2.21453E+006	224.462
250.9000	886451	224.519
250.8000	23769.8	224.576
250.7000	357776	224.647
250.6000	738712	224.712
250.5000	669191	224.763
250.4000	256305	224.822
250.3000	-380893	224.877
250.2000	-729489	224.94
250.1000	-61798.1	225.006
250.0000	432578	225.061
249.9000	333684	225.11
249.8000	296546	225.146
249.7000	574722	225.193
249.6000	962118	225.24
249.5000	681873	225.288
249.4000	1.25199E+006	225.345
249.3000	1.64184E+006	225.4
249.2000	1.84132E+006	225.448
249.1000	1.9538E+006	225.502
249.0000	2.1545E+006	225.774
248.9000	1.87177E+006	239.877
248.8000	2.33722E+006	253.156
248.7000	2.79924E+006	266.665
248.6000	3.12902E+006	273.68
248.5000	3.35517E+006	275.273
248.4000	3.57243E+006	275.69
248.3000	2.99036E+006	279.899
248.2000	2.67067E+006	294.098
248.1000	2.68534E+006	297.491
248.0000	1.95052E+006	297.856
247.9000	658578	297.946
247.8000	131844	301.331
247.7000	-1.0043E+006	312.368
247.6000	-1.56928E+006	325.341
247.5000	-881950	338.658
247.4000	-414217	338.248
247.3000	-785955	337.06
247.2000	-1.00836E+006	328.861
247.1000	-660765	319.095
247.0000	-951784	310.71
246.9000	-247430	300.69
246.8000	-138643	296.418
246.7000	541975	286.222
246.6000	342441	274.607
246.5000	634622	265.774
246.4000	502752	267.308
246.3000	5018.45	268.635
246.2000	363888	263.073
246.1000	486560	259.28
246.0000	-187386	252.068
245.9000	-1.16741E+006	246.725
245.8000	-2.12704E+006	245.5
245.7000	-2.51952E+006	241.952
245.6000	-2.00127E+006	234.093
245.5000	-1.092E+006	229.011
245.4000	-627602	227.905
245.3000	-689189	227.682
245.2000	-312670	227.671
245.1000	-331014	227.713
245.0000	-711407	227.773
244.9000	-29407.1	227.833
244.8000	-385971	227.885
244.7000	-1.07742E+006	227.942
244.6000	-1.47383E+006	228.002
244.5000	-1.49959E+006	228.065
244.4000	-1.59575E+006	228.126
244.3000	-1.61572E+006	228.187
244.2000	-914900	228.244
244.1000	-831418	228.305
244.0000	-887222	228.368
243.9000	-1.00155E+006	228.428
243.8000	-622296	228.488
243.7000	-295385	228.547
243.6000	-428204	228.606
243.5000	-242420	228.671
243.4000	344111	228.745
243.3000	383318	228.819
243.2000	549401	228.894
243.1000	1.07151E+006	228.966
243.0000	1.55879E+006	229.034
242.9000	1.38896E+006	229.104
242.8000	1.3424E+006	229.175
242.7000	1.71698E+006	229.245
242.6000	1.49821E+006	229.31
242.5000	1.68807E+006	233.033
242.4000	2.04675E+006	237.183
242.3000	2.25461E+006	238.156
242.2000	1.89738E+006	238.433
242.1000	1.49239E+006	238.554
242.0000	1.90242E+006	238.641
241.9000	1.98274E+006	238.718
241.8000	1.83829E+006	238.792
241.7000	1.40191E+006	238.353
241.6000	1.32117E+006	231.937
241.5000	1.38441E+006	230.519
241.4000	1.30363E+006	230.252
241.3000	1.17001E+006	230.299
241.2000	351351	239.962
241.1000	-363566	242.414
241.0000	-1.35139E+006	243.041
240.9000	-2.24091E+006	243.243
240.8000	-2.28413E+006	243.35
240.7000	-2.96023E+006	243.439
240.6000	-3.6303E+006	243.522
240.5000	-4.11371E+006	243.6
240.4000	-3.62962E+006	235.995
240.3000	-3.46862E+006	232.158
240.2000	-2.75834E+006	231.334
240.1000	-1.3243E+006	231.203
240.0000	-1.17872E+006	231.231
239.9000	-541102	231.297
239.8000	-1.19331E+006	231.371
239.7000	-742798	231.451
239.6000	-169440	231.534
239.5000	-162506	231.618
239.4000	1.29656E+006	231.708
239.3000	343569	231.799
239.2000	682712	231.895
239.1000	1.36561E+006	231.989
239.0000	2.45393E+006	232.088
238.9000	3.00636E+006	232.19
238.8000	2.53879E+006	232.289
238.7000	2.32939E+006	232.391
238.6000	1.01444E+006	232.485
238.5000	970120	232.576
238.4000	1.35624E+006	232.671
238.3000	925335	232.763
238.2000	-173755	232.857
238.1000	-513602	232.946
238.0000	-835953	233.037
237.9000	-480423	233.132
237.8000	-24982	233.228
237.7000	-216768	233.327
237.6000	-1.11101E+006	233.428
237.5000	-2.36601E+006	233.531
237.4000	-2.96235E+006	233.631
237.3000	-2.98203E+006	233.734
237.2000	-2.573E+006	233.84
237.1000	-2.24791E+006	233.941
237.0000	-2.10166E+006	234.046
236.9000	-1.58097E+006	234.153
236.8000	-589201	234.258
236.7000	44496.3	234.362
236.6000	751360	234.465
236.5000	890350	234.569
236.4000	1.49861E+006	238.559
236.3000	506736	250.411
236.2000	-142780	253.399
236.1000	-804799	254.175
236.0000	-1.76025E+006	254.442
235.9000	-2.54009E+006	254.59
235.8000	-2.98196E+006	254.712
235.7000	-3.39366E+006	254.83
235.6000	-3.69358E+006	254.94
235.5000	-3.46977E+006	241.871
235.4000	-3.28395E+006	237.202
235.3000	-3.09733E+006	236.227
235.2000	-2.54409E+006	241.398
235.1000	-2.42689E+006	255.87
235.0000	-2.52403E+006	269.999
234.9000	-2.5511E+006	284.2
234.8000	-3.30068E+006	295.458
234.7000	-4.15398E+006	298.782
234.6000	-4.08989E+006	299.621
234.5000	-4.29109E+006	299.902
234.4000	-3.88334E+006	299.836
234.3000	-3.70546E+006	285.101
234.2000	-2.95651E+006	271.216
234.1000	-2.54549E+006	257.225
234.0000	-1.40183E+006	244.254
233.9000	-648770	238.98
233.8000	-182809	237.904
233.7000	-509898	237.742
233.6000	-1.20816E+006	237.793
233.5000	-2.64906E+006	237.896
233.4000	-3.24451E+006	238.011
233.3000	-3.68572E+006	238.127
233.2000	-4.28894E+006	238.251
233.1000	-4.19198E+006	238.374
233.0000	-3.67489E+006	238.498
232.9000	-2.53016E+006	238.619
232.8000	-2.17996E+006	238.741
232.7000	-1.25871E+006	238.867
232.6000	-280109	238.994
232.5000	535829	239.121
232.4000	398000	239.243
232.3000	1.21214E+006	239.366
232.2000	1.31061E+006	239.484
232.1000	177104	239.606
232.0000	-521961	239.726
231.9000	-938204	239.845
231.8000	-1.26695E+006	239.959
231.7000	-1.77164E+006	240.076
231.6000	-2.32341E+006	240.196
231.5000	-3.68206E+006	240.315
231.4000	-4.90139E+006	240.438
231.3000	-4.79118E+006	240.558
231.2000	-4.30606E+006	240.683
231.1000	-4.41051E+006	240.805
231.0000	-4.23467E+006	240.93
230.9000	-4.80265E+006	241.055
230.8000	-5.71144E+006	241.172
230.7000	-5.28074E+006	241.295
230.6000	-5.8988E+006	241.418
230.5000	-6.15668E+006	241.55
230.4000	-6.39208E+006	241.684
230.3000	-6.03118E+006	241.821
230.2000	-5.93041E+006	241.954
230.1000	-5.17846E+006	242.09
230.0000	-4.50108E+006	242.226
229.9000	-3.99265E+006	242.359
229.8000	-3.25245E+006	242.49
229.7000	-3.02814E+006	242.62
229.6000	-3.92153E+006	242.738
229.5000	-4.50836E+006	242.851
229.4000	-4.29273E+006	242.962
229.3000	-5.34771E+006	243.07
229.2000	-5.33251E+006	243.179
229.1000	-3.79337E+006	243.293
229.0000	-3.40103E+006	243.408
228.9000	-3.55008E+006	243.519
228.8000	-2.70687E+006	243.635
228.7000	-2.56469E+006	243.761
228.6000	-3.06031E+006	243.891
228.5000	-3.90406E+006	244.025
228.4000	-3.58539E+006	244.165
228.3000	-5.31979E+006	244.307
228.2000	-6.29519E+006	244.45
228.1000	-5.85035E+006	244.603
228.0000	-4.66137E+006	244.76
227.9000	-4.02379E+006	244.914
227.8000	-3.79902E+006	245.06
227.7000	-3.45954E+006	245.209
227.6000	-3.91585E+006	245.352
227.5000	-4.18743E+006	245.494
227.4000	-5.04996E+006	245.635
227.3000	-5.96104E+006	245.774
227.2000	-6.28009E+006	245.912
227.1000	-6.28552E+006	246.049
227.0000	-6.62903E+006	246.188
226.9000	-6.35649E+006	246.329
226.8000	-5.51435E+006	246.474
226.7000	-4.53923E+006	246.619
226.6000	-3.71357E+006	246.764
226.5000	-3.19357E+006	246.903
226.4000	-3.33647E+006	247.034
226.3000	-3.84984E+006	247.164
226.2000	-3.59176E+006	255.941
226.1000	-2.96212E+006	271.162
226.0000	-3.07578E+006	286.09
225.9000	-3.73493E+006	301.02
225.8000	-4.23912E+006	315.954
225.7000	-5.24685E+006	330.899
225.6000	-5.33161E+006	345.86
225.5000	-5.36987E+006	360.833
225.4000	-5.75403E+006	372.28
225.3000	-6.35051E+006	362.1
225.2000	-7.5793E+006	358.437
225.1000	-8.63508E+006	349.389
225.0000	-8.46156E+006	335.986
224.9000	-6.56736E+006	321.615
224.8000	-5.64612E+006	307.008
224.7000	-5.1486E+006	292.337
224.6000	-4.62817E+006	277.647
224.5000	-3.66965E+006	268.901
224.4000	-2.2614E+006	261.703
224.3000	-640411	252.583
224.2000	284992	250.67
224.1000	-175434	250.321
224.0000	266825	250.339
223.9000	696131	250.443
223.8000	1.56535E+006	250.567
223.7000	607291	250.696
223.6000	-449617	250.831
223.5000	-1.21202E+006	250.967
223.4000	-2.81206E+006	251.103
223.3000	-2.98949E+006	251.239
223.2000	-3.47876E+006	253.952
223.1000	-4.73409E+006	262.773
223.0000	-6.83039E+006	264.846
222.9000	-7.30152E+006	265.437
222.8000	-7.80785E+006	266.149
222.7000	-7.67138E+006	266.551
222.6000	-6.77683E+006	266.742
222.5000	-6.94341E+006	276.047
222.4000	-8.48338E+006	291.544
222.3000	-8.85044E+006	297.1
222.2000	-8.62576E+006	309.166
222.1000	-8.5578E+006	323.668
222.0000	-8.57726E+006	338.489
221.9000	-7.84193E+006	353.283
221.8000	-8.15654E+006	368.453
221.7000	-8.21275E+006	378.786
221.6000	-6.79497E+006	370.268
221.5000	-6.73848E+006	356.946
221.4000	-6.47216E+006	342.373
221.3000	-6.82204E+006	327.498
221.2000	-6.54916E+006	312.548
221.1000	-6.38333E+006	297.577
221.0000	-6.03859E+006	282.589
220.9000	-6.12162E+006	278.64
220.8000	-6.21231E+006	273.995
220.7000	-5.23134E+006	272.742
220.6000	-4.76082E+006	279.609
220.5000	-4.48093E+006	295.316
220.4000	-4.13402E+006	310.663
220.3000	-4.86891E+006	326.04
220.2000	-5.28086E+006	341.436
220.1000	-6.17168E+006	351.471
220.0000	-5.99929E+006	357.417
219.9000	-7.67928E+006	370.762
219.8000	-9.24774E+006	384.441
219.7000	-9.33135E+006	383.43
219.6000	-1.01516E+007	383.608
219.5000	-1.01821E+007	383.821
219.4000	-1.15944E+007	384.03
219.3000	-1.20126E+007	384.241
219.2000	-1.24636E+007	384.453
219.1000	-1.23831E+007	384.661
219.0000	-1.29636E+007	384.871
218.9000	-1.36639E+007	385.078
218.8000	-1.39725E+007	385.287
218.7000	-1.32942E+007	385.495
218.6000	-1.28116E+007	385.703
218.5000	-1.29554E+007	385.911
218.4000	-1.13756E+007	386.129
218.3000	-1.05675E+007	386.338
218.2000	-1.02525E+007	386.548
218.1000	-9.77884E+006	386.757
218.0000	-9.72182E+006	386.973
217.9000	-1.01717E+007	387.188
217.8000	-1.02908E+007	387.398
217.7000	-9.65491E+006	387.611
217.6000	-9.1497E+006	387.815
217.5000	-1.00845E+007	388.026
217.4000	-1.05533E+007	388.233
217.3000	-1.08828E+007	383.785
217.2000	-1.01543E+007	371.045
217.1000	-8.93768E+006	356.335
217.0000	-8.33472E+006	341.159
216.9000	-7.6274E+006	325.872
216.8000	-8.79191E+006	310.55
216.7000	-9.01716E+006	295.208
216.6000	-8.76419E+006	279.858
216.5000	-6.75414E+006	266.141
216.4000	-6.3765E+006	262.053
216.3000	-7.30933E+006	261.217
216.2000	-7.39154E+006	261.13
216.1000	-8.23418E+006	261.218
216.0000	-7.75097E+006	261.345
215.9000	-7.75966E+006	261.481
215.8000	-7.14669E+006	261.62
215.7000	-7.07193E+006	261.766
215.6000	-8.61497E+006	261.91
215.5000	-8.88225E+006	275.747
215.4000	-9.44198E+006	284.752
215.3000	-8.83562E+006	293.721
215.2000	-7.59021E+006	297.086
215.1000	-7.84175E+006	298.033
215.0000	-8.57746E+006	304.742
214.9000	-8.38125E+006	312.961
214.8000	-7.82276E+006	314.912
214.7000	-7.10669E+006	307.095
214.6000	-7.00239E+006	296.782
214.5000	-5.78883E+006	286.256
214.4000	-5.19568E+006	282.139
214.3000	-4.68944E+006	281
214.2000	-3.83527E+006	282.1
214.1000	-4.02074E+006	277.997
214.0000	-3.90277E+006	286.428
213.9000	-5.30701E+006	288.437
213.8000	-6.36955E+006	302.05
213.7000	-7.3588E+006	318.113
213.6000	-8.9948E+006	333.219
213.5000	-1.03063E+007	346.299
213.4000	-1.02287E+007	356.387
213.3000	-1.053E+007	355.992
213.2000	-1.10557E+007	341.967
213.1000	-1.18431E+007	338.11
213.0000	-1.03781E+007	329.807
212.9000	-9.76131E+006	313.718
212.8000	-9.56769E+006	298.542
212.7000	-9.35441E+006	283.895
212.6000	-8.42951E+006	272.565
212.5000	-6.84003E+006	268.138
212.4000	-6.08094E+006	274.403
212.3000	-5.22979E+006	283.05
212.2000	-4.05741E+006	285.089
212.1000	-4.32553E+006	285.7
212.0000	-4.36378E+006	285.98
211.9000	-3.87968E+006	298.862
211.8000	-5.01966E+006	303.525
211.7000	-6.72176E+006	320.493
211.6000	-7.84377E+006	335.667
211.5000	-8.31289E+006	338.701
211.4000	-8.91759E+006	351.805
211.3000	-9.16259E+006	365.167
211.2000	-8.20335E+006	368.788
211.1000	-7.38E+006	359.609
211.0000	-6.40077E+006	349.751
210.9000	-4.13001E+006	336.583
210.8000	-2.96914E+006	309.268
210.7000	-1.25169E+006	278.344
210.6000	768255	247.298
210.5000	935177	226.229
210.4000	2.03462E+006	206.234
210.3000	1.69172E+006	200.86
210.2000	833096	202.561
210.1000	117094	200.583
210.0000	-554657	198.946
209.9000	-961499	198.728
209.8000	-946562	213.774
209.7000	537423	217.373
209.6000	-1.18284E+006	224.278
209.5000	-2.24781E+006	220.298
209.4000	-1.42374E+006	206.58
209.3000	-1.17539E+006	192.57
209.2000	-1.74166E+006	182.393
209.1000	-1.49488E+006	180.156
209.0000	-2.37343E+006	170.19
208.9000	-3.39216E+006	154.725
208.8000	-1.56732E+006	152.402
208.7000	625432	152.588
208.6000	2.71703E+006	152.714
208.5000	4.32915E+006	152.824
208.4000	4.63954E+006	152.929
208.3000	4.57564E+006	153.032
208.2000	4.01194E+006	153.136
208.1000	3.39496E+006	163.71
208.0000	2.58961E+006	169.113
207.9000	1.62731E+006	181.045
207.8000	-575994	198.786
207.7000	-2.5669E+006	213.897
207.6000	-2.4756E+006	224.644
207.5000	-1.39088E+006	227.176
207.4000	-1.20321E+006	231.366
207.3000	-1.93345E+006	241.521
207.2000	-2.20452E+006	242.643
207.1000	-2.74501E+006	226.84
207.0000	-3.18598E+006	205.798
206.9000	-2.7689E+006	197.156
206.8000	-2.36024E+006	200.369
206.7000	-2.80266E+006	213.108
206.6000	-4.02008E+006	229.144
206.5000	-4.73362E+006	237.647
206.4000	-4.71187E+006	231.653
206.3000	-5.30867E+006	232.967
206.2000	-6.41962E+006	250.362
206.1000	-7.70347E+006	266.342
206.0000	-9.71531E+006	265.224
205.9000	-1.1007E+007	265.378
205.8000	-1.16869E+007	265.58
205.7000	-1.1437E+007	257.569
205.6000	-1.1852E+007	264.69
205.5000	-1.21694E+007	279.347
205.4000	-1.12676E+007	289.517
205.3000	-1.29961E+007	306.889
205.2000	-1.38797E+007	323.511
205.1000	-1.42185E+007	330.286
205.0000	-1.46863E+007	342.064
204.9000	-1.47423E+007	356.483
204.8000	-1.45853E+007	373.715
204.7000	-1.41956E+007	390.844
204.6000	-1.50521E+007	405.46
204.5000	-1.28778E+007	404.256
204.4000	-1.05714E+007	404.567
204.3000	-9.80193E+006	411.236
204.2000	-9.09616E+006	417.995
204.1000	-8.59054E+006	424.611
204.0000	-6.82811E+006	424.512
203.9000	-6.04659E+006	422.691
203.8000	-5.64776E+006	423.084
203.7000	-6.44338E+006	424.138
203.6000	-7.13069E+006	424.487
203.5000	-5.87697E+006	424.836
203.4000	-3.17352E+006	425.191
203.3000	-1.55093E+006	425.549
203.2000	-2.86676E+006	425.903
203.1000	-3.47588E+006	428.456
203.0000	-5.07968E+006	428.744
202.9000	-6.55801E+006	429.102
202.8000	-6.52298E+006	429.468
202.7000	-6.38999E+006	423.586
202.6000	-5.37776E+006	415.141
202.5000	-5.75095E+006	409.119
202.4000	-5.55502E+006	409.029
202.3000	-5.12039E+006	402.628
202.2000	-2.01764E+006	401.457
202.1000	2.37101E+006	401.874
202.0000	4.42977E+006	402.245
201.9000	6.15782E+006	405.212
201.8000	6.52832E+006	414.64
201.7000	5.32399E+006	425.74
201.6000	4.49959E+006	424.453
201.5000	5.45623E+006	428.65
201.4000	4.03156E+006	434.53
201.3000	2.99132E+006	434.751
201.2000	2.27365E+006	435.153
201.1000	2.73159E+006	435.557
201.0000	1.19862E+006	429.336
200.9000	371238	426.44
200.8000	1.62669E+006	423.412
200.7000	2.13192E+006	410.206
200.6000	2.94846E+006	393.94
200.5000	3.81615E+006	387.584
200.4000	4.27918E+006	388.38
200.3000	3.20709E+006	388.816
200.2000	2.43323E+006	392.09
200.1000	3.30137E+006	399.876
200.0000	4.08969E+006	400.814
199.9000	4.85218E+006	412.796
199.8000	6.35156E+006	429.408
199.7000	7.39413E+006	438.76
199.6000	8.54219E+006	436.664
199.5000	1.06011E+007	437.124
199.4000	1.36076E+007	437.575
199.3000	1.4369E+007	437.867
199.2000	1.23223E+007	437.889
199.1000	9.23758E+006	438.34
199.0000	7.67352E+006	438.792
198.9000	7.53476E+006	440.545
198.8000	6.77183E+006	445.629
198.7000	5.22991E+006	446.001
198.6000	6.44858E+006	446.522
198.5000	7.93046E+006	447.096
198.4000	9.56699E+006	448.152
198.3000	1.1405E+007	443.96
198.2000	1.22096E+007	441.708
198.1000	1.11466E+007	442.538
198.0000	1.13424E+007	443.155
197.9000	1.22157E+007	443.784
197.8000	1.02917E+007	444.43
197.7000	5.74515E+006	445.103
197.6000	4.80298E+006	445.683
197.5000	5.57542E+006	448.989
197.4000	7.99001E+006	454.827
197.3000	1.13384E+007	454.861
197.2000	1.28041E+007	455.491
197.1000	1.27176E+007	455.845
197.0000	1.27153E+007	456.397
196.9000	1.4375E+007	456.959
196.8000	1.59841E+007	457.511
196.7000	1.85487E+007	458.447
196.6000	1.92291E+007	459.011
196.5000	2.12626E+007	459.271
196.4000	1.9979E+007	459.749
196.3000	2.06093E+007	460.434
196.2000	2.38308E+007	461.174
196.1000	2.4117E+007	461.375
196.0000	2.56107E+007	462.098
195.9000	2.60068E+007	463.02
195.8000	2.68267E+007	464.014
195.7000	2.56167E+007	465.215
195.6000	2.47067E+007	466.752
195.5000	2.53924E+007	468.048
195.4000	2.36811E+007	469.681
195.3000	2.57062E+007	471.566
195.2000	2.74319E+007	473.361
195.1000	2.75121E+007	474.859
195.0000	2.60613E+007	476.3
194.9000	2.38524E+007	477.637
194.8000	1.98667E+007	478.812
194.7000	1.89533E+007	479.821
194.6000	1.87525E+007	480.683
194.5000	1.87234E+007	481.416
194.4000	1.91125E+007	482.058
194.3000	1.63148E+007	482.637
194.2000	1.62365E+007	483.23
194.1000	1.64428E+007	483.901
194.0000	1.93468E+007	484.726
193.9000	2.07293E+007	485.735
193.8000	2.09532E+007	486.955
193.7000	1.97314E+007	488.415
193.6000	1.98501E+007	490.141
193.5000	2.03439E+007	492.101
193.4000	2.03754E+007	494.236
193.3000	1.82717E+007	496.726
193.2000	1.92287E+007	498.9
193.1000	2.06612E+007	495.198
193.0000	2.30935E+007	481.03
192.9000	2.31525E+007	464.36
192.8000	2.21926E+007	446.962
192.7000	2.0555E+007	429.138
192.6000	2.00005E+007	411.139
192.5000	2.21147E+007	392.464
192.4000	2.45504E+007	373.651
192.3000	2.69768E+007	356.943
192.2000	2.96788E+007	353.984
192.1000	2.98319E+007	375.658
192.0000	3.12707E+007	396.55
191.9000	3.07469E+007	417.377
191.8000	3.1213E+007	427.515
191.7000	3.02751E+007	430.289
191.6000	2.82551E+007	431.75
191.5000	2.6095E+007	433.168
191.4000	2.25623E+007	434.848
191.3000	1.89867E+007	433.571
191.2000	1.70588E+007	418.892
191.1000	1.9067E+007	404.535
191.0000	2.21326E+007	398.002
190.9000	1.90325E+007	409.68
190.8000	2.07243E+007	429.527
190.7000	2.06451E+007	457.162
190.6000	2.55156E+007	484.294
190.5000	3.38699E+007	499.118
190.4000	3.91967E+007	501.473
190.3000	3.6524E+007	513.087
190.2000	3.556E+007	518.68
190.1000	4.20106E+007	535.739
190.0000	4.38294E+007	539.051

##### Extended Information
[Comments]
Sample name	ACE2_3uL_0.12uM
Comment
User
Division
Company	CSIR-IMTECH

[Detailed Information]
Creation date	2/26/2024 1:18 PM

Data array type	Linear data array * 2
Horizontal axis	Wavelength [nm]
Vertical axis(1)	Mol. Ellip.
Vertical axis(2)	HT [V]
Start	350 nm
End	190 nm
Data interval	0.1 nm
Data points	1601    

[Measurement Information]
Instrument Name	JASCO CD
Model Name	J-815
Serial No.	B063061168

Accessory	PTC-423S
Accessory S/N	C013945-01
  Temperature	37.41 C
  Control Sonsor	Cell
  Monitor Sensor	Cell
  Start Mode	Start immediately
  Cell Length	10 mm

Measurement date	2/26/2024 1:16 PM

Photometric Mode	CD, HT
Measure Range	350 - 190 nm
Data pitch	0.1 nm
Sensitivity	Standard
D.I.T.	1 sec
Bandwidth	1.00 nm
Start Mode	Immediately
Scanning Speed	50 nm/min
Baseline Correction	Baseline
Shutter Control	Manual
CD Detector	PMT
PMT Voltage	Auto
Accumulations	3
Concentration	0.12 umol/L

