TITLE	ACE2
DATA TYPE	
ORIGIN	JASCO
OWNER	
DATE	24/04/09
TIME	13:48:39
SPECTROMETER/DATA SYSTEM	
LOCALE	1033
RESOLUTION	
DELTAX	-0.1
XUNITS	NANOMETERS
YUNITS	CD [mdeg]
Y2UNITS	HT [V]
FIRSTX	  350.0000
LASTX	  190.0000
NPOINTS	    1601
FIRSTY	     0.50194
MAXY	     6.32057
MINY	    -2.47382
XYDATA
350.0000	0.501942	483.169
349.9000	0.749014	482.551
349.8000	0.718687	481.635
349.7000	0.813307	480.706
349.6000	0.679333	480.036
349.5000	0.197184	479.454
349.4000	-0.144724	478.566
349.3000	-0.223623	477.936
349.2000	-0.327516	477.406
349.1000	-0.483319	476.578
349.0000	-0.699326	475.96
348.9000	-0.55135	475.431
348.8000	-0.327012	474.584
348.7000	-0.0280406	473.727
348.6000	0.119806	473.108
348.5000	0.16447	472.567
348.4000	0.280225	471.709
348.3000	0.206285	471.056
348.2000	0.363893	470.486
348.1000	0.439513	469.62
348.0000	0.234505	468.966
347.9000	0.0255951	468.402
347.8000	0.0562401	467.562
347.7000	0.100172	466.709
347.6000	0.146015	466.093
347.5000	0.299602	465.578
347.4000	0.536711	464.777
347.3000	0.384416	464.169
347.2000	0.296132	463.659
347.1000	0.378445	462.891
347.0000	0.319603	462.324
346.9000	0.109824	461.828
346.8000	-0.00367856	461.063
346.7000	-0.131303	460.285
346.6000	-0.14509	459.712
346.5000	-0.097678	458.962
346.4000	0.0738921	458.199
346.3000	0.0861167	457.612
346.2000	0.169242	456.835
346.1000	0.279371	456.04
346.0000	0.348356	455.45
345.9000	0.464848	454.941
345.8000	0.244989	454.144
345.7000	0.0705715	453.554
345.6000	-0.0570364	453.047
345.5000	-0.017878	452.315
345.4000	0.0937718	451.787
345.3000	0.144335	451.347
345.2000	0.163881	450.65
345.1000	0.213241	449.946
345.0000	0.417695	449.437
344.9000	0.756444	448.789
344.8000	0.922885	448.119
344.7000	0.711259	447.599
344.6000	0.59266	446.926
344.5000	0.461524	446.24
344.4000	0.353445	445.727
344.3000	0.333463	445.043
344.2000	0.10539	444.336
344.1000	0.124315	443.801
344.0000	-0.253979	443.115
343.9000	-0.353107	442.432
343.8000	-0.409441	441.934
343.7000	-0.58036	441.501
343.6000	-0.723429	440.843
343.5000	-0.893285	440.373
343.4000	-1.06627	439.989
343.3000	-1.09045	439.385
343.2000	-1.0436	438.943
343.1000	-0.875236	438.561
343.0000	-0.723448	437.98
342.9000	-0.668614	437.376
342.8000	-0.701777	436.924
342.7000	-0.580135	436.309
342.6000	-0.518874	435.673
342.5000	-0.442121	435.196
342.4000	-0.565838	434.589
342.3000	-0.561355	433.978
342.2000	-0.535562	433.505
342.1000	-0.532273	432.911
342.0000	-0.361585	432.321
341.9000	-0.337896	431.901
341.8000	-0.261866	431.345
341.7000	-0.382393	430.776
341.6000	-0.261405	430.359
341.5000	-0.144546	429.836
341.4000	-0.175725	429.304
341.3000	-0.171798	428.907
341.2000	-0.180369	428.342
341.1000	-0.21711	427.76
341.0000	-0.209603	427.333
340.9000	-0.0756917	426.797
340.8000	-0.121443	426.24
340.7000	-0.392327	425.796
340.6000	-0.506225	425.239
340.5000	-0.456285	424.676
340.4000	-0.369362	424.271
340.3000	-0.348669	423.734
340.2000	-0.248966	423.196
340.1000	-0.211849	422.792
340.0000	-0.155833	422.296
339.9000	0.0345516	421.803
339.8000	0.11083	421.434
339.7000	0.0969687	420.968
339.6000	0.0711735	420.5
339.5000	0.0713782	420.182
339.4000	0.200184	419.734
339.3000	0.203428	419.258
339.2000	0.165036	418.736
339.1000	0.111541	418.262
339.0000	0.194104	417.778
338.9000	0.279719	417.225
338.8000	0.406279	416.718
338.7000	0.35197	416.194
338.6000	0.321968	415.636
338.5000	0.235503	415.149
338.4000	0.134448	414.786
338.3000	0.240386	414.343
338.2000	0.198538	413.892
338.1000	0.200483	413.574
338.0000	0.151842	413.146
337.9000	0.0677548	412.711
337.8000	-0.00580852	412.407
337.7000	-0.0275897	412.021
337.6000	-0.0853317	411.618
337.5000	-0.178397	411.307
337.4000	-0.237698	410.902
337.3000	-0.235518	410.479
337.2000	-0.394055	410.009
337.1000	-0.464795	409.592
337.0000	-0.411134	409.17
336.9000	-0.43732	408.708
336.8000	-0.32513	408.3
336.7000	-0.118847	407.896
336.6000	-0.121162	407.448
336.5000	-0.319728	407.034
336.4000	-0.358569	406.748
336.3000	-0.358919	406.353
336.2000	-0.428749	405.948
336.1000	-0.480867	405.646
336.0000	-0.575193	405.263
335.9000	-0.806539	404.854
335.8000	-0.949401	404.403
335.7000	-0.889288	404.002
335.6000	-0.935356	403.593
335.5000	-0.775104	403.18
335.4000	-0.687987	402.82
335.3000	-0.567354	402.462
335.2000	-0.581485	402.072
335.1000	-0.471639	401.736
335.0000	-0.466606	401.51
334.9000	-0.416311	401.189
334.8000	-0.32678	400.856
334.7000	-0.309811	400.486
334.6000	-0.444863	400.159
334.5000	-0.562267	399.822
334.4000	-0.641632	399.426
334.3000	-0.629889	399.06
334.2000	-0.704773	398.678
334.1000	-0.729326	398.266
334.0000	-0.704705	397.907
333.9000	-0.680264	397.641
333.8000	-0.668008	397.298
333.7000	-0.572626	396.95
333.6000	-0.415481	396.577
333.5000	-0.369134	396.252
333.4000	-0.375214	395.928
333.3000	-0.359858	395.589
333.2000	-0.282126	395.299
333.1000	-0.316098	394.999
333.0000	-0.327129	394.675
332.9000	-0.291502	394.384
332.8000	-0.3493	394.037
332.7000	-0.442829	393.73
332.6000	-0.41865	393.415
332.5000	-0.372111	393.078
332.4000	-0.366313	392.779
332.3000	-0.300283	392.472
332.2000	-0.296326	392.108
332.1000	-0.349074	391.773
332.0000	-0.317178	391.429
331.9000	-0.235398	391.145
331.8000	-0.164105	390.861
331.7000	-0.0766544	390.542
331.6000	-0.0459148	390.242
331.5000	-0.127656	389.821
331.4000	-0.150912	389.497
331.3000	-0.122561	389.219
331.2000	-0.105466	388.909
331.1000	-0.151139	388.627
331.0000	-0.208379	388.334
330.9000	-0.188255	388.028
330.8000	-0.286693	387.758
330.7000	-0.261705	387.451
330.6000	-0.117196	387.187
330.5000	-0.0653048	386.921
330.4000	-0.144736	386.628
330.3000	-0.194925	386.375
330.2000	-0.189612	386.013
330.1000	-0.24469	385.717
330.0000	-0.231026	385.452
329.9000	-0.214266	385.162
329.8000	-0.321288	384.904
329.7000	-0.368339	384.56
329.6000	-0.244632	384.292
329.5000	-0.188826	384.051
329.4000	-0.197762	383.753
329.3000	-0.216249	383.488
329.2000	-0.19567	383.126
329.1000	-0.211215	382.84
329.0000	-0.135589	382.598
328.9000	-0.181462	382.318
328.8000	-0.388687	382.06
328.7000	-0.367202	381.716
328.6000	-0.392186	381.462
328.5000	-0.388852	381.253
328.4000	-0.426214	380.996
328.3000	-0.412932	380.77
328.2000	-0.423441	380.471
328.1000	-0.461997	380.236
328.0000	-0.360608	380.033
327.9000	-0.340221	379.764
327.8000	-0.34928	379.518
327.7000	-0.346978	379.267
327.6000	-0.406573	379.101
327.5000	-0.381291	378.981
327.4000	-0.392706	378.717
327.3000	-0.307364	378.47
327.2000	-0.305984	378.18
327.1000	-0.268842	377.984
327.0000	-0.327853	377.832
326.9000	-0.391336	377.553
326.8000	-0.277961	377.262
326.7000	-0.250162	376.938
326.6000	-0.219658	376.748
326.5000	-0.252871	376.622
326.4000	-0.40675	376.352
326.3000	-0.621197	376.078
326.2000	-0.68139	375.797
326.1000	-0.686128	375.613
326.0000	-0.72617	375.316
325.9000	-0.816674	375.034
325.8000	-0.854845	374.76
325.7000	-0.877738	374.502
325.6000	-0.813649	374.367
325.5000	-0.652745	374.092
325.4000	-0.596135	373.813
325.3000	-0.622811	373.525
325.2000	-0.611929	373.362
325.1000	-0.617772	373.253
325.0000	-0.638103	372.966
324.9000	-0.606502	372.663
324.8000	-0.605813	372.358
324.7000	-0.64514	372.204
324.6000	-0.597399	372.13
324.5000	-0.514526	371.868
324.4000	-0.42415	371.597
324.3000	-0.411486	371.34
324.2000	-0.390432	371.21
324.1000	-0.497532	370.957
324.0000	-0.543411	370.695
323.9000	-0.508205	370.424
323.8000	-0.431814	370.169
323.7000	-0.409525	370.044
323.6000	-0.497075	369.771
323.5000	-0.583282	369.472
323.4000	-0.626275	369.187
323.3000	-0.643255	369.037
323.2000	-0.673411	368.949
323.1000	-0.736116	368.686
323.0000	-0.894113	368.401
322.9000	-1.04726	368.118
322.8000	-1.0264	367.986
322.7000	-0.845656	367.75
322.6000	-0.670376	367.48
322.5000	-0.632935	367.201
322.4000	-0.554259	366.924
322.3000	-0.495284	366.754
322.2000	-0.342855	366.453
322.1000	-0.143332	366.128
322.0000	-0.0166803	365.815
321.9000	-0.0585471	365.628
321.8000	-0.109067	365.341
321.7000	-0.166708	365.037
321.6000	-0.203356	364.726
321.5000	-0.209469	364.446
321.4000	-0.330773	364.317
321.3000	-0.467395	364.133
321.2000	-0.606427	363.941
321.1000	-0.714535	363.751
321.0000	-0.761634	363.694
320.9000	-0.672879	363.556
320.8000	-0.589312	363.416
320.7000	-0.511124	363.283
320.6000	-0.461385	363.137
320.5000	-0.511419	363.081
320.4000	-0.503761	362.901
320.3000	-0.325805	362.71
320.2000	-0.191503	362.534
320.1000	-0.218417	362.466
320.0000	-0.242795	362.298
319.9000	-0.254625	362.11
319.8000	-0.286582	361.915
319.7000	-0.160356	361.72
319.6000	-0.11429	361.512
319.5000	-0.175468	361.356
319.4000	-0.324823	361.176
319.3000	-0.389689	360.965
319.2000	-0.419993	360.858
319.1000	-0.458158	360.651
319.0000	-0.563386	360.426
318.9000	-0.70119	360.21
318.8000	-0.808868	360.091
318.7000	-0.904542	359.866
318.6000	-0.909415	359.635
318.5000	-0.905565	359.434
318.4000	-0.895081	359.235
318.3000	-0.859738	359.036
318.2000	-0.798187	358.895
318.1000	-0.720595	358.747
318.0000	-0.653504	358.569
317.9000	-0.539651	358.497
317.8000	-0.547185	358.364
317.7000	-0.55937	358.212
317.6000	-0.619773	358.023
317.5000	-0.673277	357.912
317.4000	-0.789141	357.726
317.3000	-0.830569	357.533
317.2000	-0.738668	357.339
317.1000	-0.677917	357.147
317.0000	-0.673678	356.897
316.9000	-0.712073	356.687
316.8000	-0.647944	356.509
316.7000	-0.630161	356.334
316.6000	-0.559438	356.158
316.5000	-0.506665	356.015
316.4000	-0.497118	355.846
316.3000	-0.473481	355.668
316.2000	-0.406907	355.501
316.1000	-0.257926	355.384
316.0000	-0.230816	355.257
315.9000	-0.205379	355.091
315.8000	-0.201882	354.984
315.7000	-0.205031	354.81
315.6000	-0.190226	354.661
315.5000	-0.310362	354.491
315.4000	-0.362547	354.385
315.3000	-0.404253	354.191
315.2000	-0.447295	353.986
315.1000	-0.532852	353.794
315.0000	-0.560771	353.608
314.9000	-0.52871	353.422
314.8000	-0.520989	353.268
314.7000	-0.538777	353.103
314.6000	-0.602173	352.94
314.5000	-0.670019	352.787
314.4000	-0.704963	352.677
314.3000	-0.627215	352.542
314.2000	-0.575724	352.406
314.1000	-0.557954	352.226
314.0000	-0.554798	352.066
313.9000	-0.547568	351.905
313.8000	-0.507362	351.752
313.7000	-0.464656	351.533
313.6000	-0.417184	351.334
313.5000	-0.441106	351.146
313.4000	-0.536204	350.962
313.3000	-0.642052	350.786
313.2000	-0.708167	350.642
313.1000	-0.719604	350.49
313.0000	-0.745111	350.34
312.9000	-0.722154	350.203
312.8000	-0.701659	350.107
312.7000	-0.690041	349.976
312.6000	-0.598295	349.849
312.5000	-0.491722	349.693
312.4000	-0.455739	349.544
312.3000	-0.376194	349.371
312.2000	-0.251194	349.2
312.1000	-0.298534	348.978
312.0000	-0.41433	348.769
311.9000	-0.48681	348.566
311.8000	-0.595969	348.329
311.7000	-0.683679	348.141
311.6000	-0.750427	347.946
311.5000	-0.810931	347.793
311.4000	-0.930003	347.6
311.3000	-1.06457	347.475
311.2000	-1.04754	347.361
311.1000	-1.03206	347.272
311.0000	-1.00642	347.173
310.9000	-0.990592	347.09
310.8000	-1.01926	346.991
310.7000	-1.01884	346.903
310.6000	-1.03024	346.778
310.5000	-0.945322	346.673
310.4000	-0.824676	346.562
310.3000	-0.708489	346.46
310.2000	-0.614804	346.366
310.1000	-0.603277	346.288
310.0000	-0.547916	346.206
309.9000	-0.510854	346.137
309.8000	-0.488444	346.072
309.7000	-0.491533	345.983
309.6000	-0.565464	345.913
309.5000	-0.609342	345.805
309.4000	-0.665382	345.712
309.3000	-0.60763	345.578
309.2000	-0.592832	345.465
309.1000	-0.621413	345.293
309.0000	-0.615406	345.149
308.9000	-0.628719	345.013
308.8000	-0.603505	344.892
308.7000	-0.599091	344.785
308.6000	-0.609758	344.697
308.5000	-0.658468	344.592
308.4000	-0.795131	344.475
308.3000	-0.844058	344.406
308.2000	-0.866695	344.303
308.1000	-0.883552	344.229
308.0000	-0.869898	344.132
307.9000	-0.833268	344.047
307.8000	-0.856872	343.907
307.7000	-0.902817	343.798
307.6000	-0.799562	343.681
307.5000	-0.732824	343.519
307.4000	-0.697616	343.396
307.3000	-0.644594	343.28
307.2000	-0.639578	343.19
307.1000	-0.702861	343.061
307.0000	-0.74775	342.97
306.9000	-0.721306	342.877
306.8000	-0.714812	342.816
306.7000	-0.775122	342.745
306.6000	-0.763287	342.658
306.5000	-0.776215	342.578
306.4000	-0.743223	342.446
306.3000	-0.685605	342.346
306.2000	-0.628017	342.219
306.1000	-0.646128	342.106
306.0000	-0.715266	341.955
305.9000	-0.691902	341.849
305.8000	-0.700972	341.774
305.7000	-0.75487	341.655
305.6000	-0.784886	341.575
305.5000	-0.798944	341.502
305.4000	-0.829152	341.457
305.3000	-0.763341	341.367
305.2000	-0.681891	341.304
305.1000	-0.65785	341.229
305.0000	-0.638662	341.103
304.9000	-0.619862	341.018
304.8000	-0.630127	340.916
304.7000	-0.611099	340.823
304.6000	-0.570388	340.69
304.5000	-0.578778	340.587
304.4000	-0.608888	340.505
304.3000	-0.637195	340.391
304.2000	-0.630209	340.329
304.1000	-0.666133	340.274
304.0000	-0.67218	340.242
303.9000	-0.713781	340.158
303.8000	-0.743463	340.081
303.7000	-0.744701	340.033
303.6000	-0.683927	339.932
303.5000	-0.646486	339.862
303.4000	-0.623982	339.776
303.3000	-0.605901	339.658
303.2000	-0.558099	339.545
303.1000	-0.436919	339.464
303.0000	-0.352057	339.421
302.9000	-0.34403	339.329
302.8000	-0.411312	339.256
302.7000	-0.532297	339.2
302.6000	-0.512717	339.118
302.5000	-0.501765	339.073
302.4000	-0.489946	339.022
302.3000	-0.536483	338.925
302.2000	-0.629883	338.827
302.1000	-0.633631	338.734
302.0000	-0.601531	338.673
301.9000	-0.54175	338.585
301.8000	-0.514022	338.51
301.7000	-0.499198	338.45
301.6000	-0.471279	338.361
301.5000	-0.500942	338.311
301.4000	-0.57212	338.259
301.3000	-0.584064	338.184
301.2000	-0.674445	338.114
301.1000	-0.704787	338.052
301.0000	-0.734505	338.019
300.9000	-0.752796	337.945
300.8000	-0.76811	337.868
300.7000	-0.753774	337.804
300.6000	-0.689658	337.723
300.5000	-0.669317	337.657
300.4000	-0.624154	337.607
300.3000	-0.505786	337.535
300.2000	-0.467752	337.461
300.1000	-0.460468	337.403
300.0000	-0.493949	337.339
299.9000	-0.52472	337.286
299.8000	-0.602888	337.232
299.7000	-0.624439	337.165
299.6000	-0.652435	337.105
299.5000	-0.743575	337.039
299.4000	-0.790286	336.986
299.3000	-0.797385	336.914
299.2000	-0.803919	336.856
299.1000	-0.754632	336.815
299.0000	-0.746996	336.748
298.9000	-0.801291	336.695
298.8000	-0.871062	336.655
298.7000	-0.880024	336.598
298.6000	-0.838721	336.553
298.5000	-0.877417	336.502
298.4000	-0.917633	336.439
298.3000	-0.963122	336.383
298.2000	-0.927541	336.327
298.1000	-0.904488	336.268
298.0000	-0.888972	336.216
297.9000	-0.876661	336.169
297.8000	-0.881858	336.103
297.7000	-0.823807	336.053
297.6000	-0.817343	336.012
297.5000	-0.804071	335.948
297.4000	-0.839557	335.901
297.3000	-0.82629	335.859
297.2000	-0.818445	335.795
297.1000	-0.806414	335.746
297.0000	-0.866783	335.692
296.9000	-0.948375	335.618
296.8000	-0.961009	335.564
296.7000	-0.931436	335.52
296.6000	-0.896539	335.484
296.5000	-0.895004	335.436
296.4000	-0.848736	335.398
296.3000	-0.787275	335.369
296.2000	-0.728657	335.331
296.1000	-0.580537	335.301
296.0000	-0.510571	335.274
295.9000	-0.509894	335.227
295.8000	-0.50726	335.162
295.7000	-0.483338	335.12
295.6000	-0.471085	335.074
295.5000	-0.53077	335.006
295.4000	-0.604879	334.927
295.3000	-0.685288	334.876
295.2000	-0.743251	334.816
295.1000	-0.771894	334.742
295.0000	-0.766876	334.703
294.9000	-0.803861	334.649
294.8000	-0.865147	334.579
294.7000	-0.845742	334.539
294.6000	-0.807691	334.506
294.5000	-0.807485	334.456
294.4000	-0.811879	334.419
294.3000	-0.817232	334.394
294.2000	-0.837712	334.347
294.1000	-0.837389	334.31
294.0000	-0.802795	334.288
293.9000	-0.835997	334.242
293.8000	-0.774519	334.215
293.7000	-0.735499	334.193
293.6000	-0.751111	334.141
293.5000	-0.802672	334.077
293.4000	-0.76137	334.048
293.3000	-0.755909	334.004
293.2000	-0.749554	333.948
293.1000	-0.703865	333.924
293.0000	-0.756377	333.874
292.9000	-0.857311	333.818
292.8000	-0.861087	333.798
292.7000	-0.859846	333.775
292.6000	-0.970522	333.735
292.5000	-1.09384	333.676
292.4000	-1.15813	333.646
292.3000	-1.17253	333.6
292.2000	-1.17018	333.552
292.1000	-1.14195	333.528
292.0000	-1.10856	333.487
291.9000	-1.05913	333.437
291.8000	-0.993365	333.392
291.7000	-0.867919	333.377
291.6000	-0.822934	333.335
291.5000	-0.796862	333.288
291.4000	-0.778798	333.263
291.3000	-0.779528	333.21
291.2000	-0.796841	333.143
291.1000	-0.850691	333.07
291.0000	-0.873173	333.016
290.9000	-0.943539	332.936
290.8000	-0.969597	332.84
290.7000	-0.965506	332.737
290.6000	-0.982152	332.624
290.5000	-0.98742	332.489
290.4000	-0.965453	332.352
290.3000	-0.948188	332.236
290.2000	-0.96245	332.097
290.1000	-0.889114	331.952
290.0000	-0.802218	331.823
289.9000	-0.754328	331.732
289.8000	-0.759463	331.651
289.7000	-0.705702	331.597
289.6000	-0.666969	331.583
289.5000	-0.701739	331.606
289.4000	-0.683703	331.651
289.3000	-0.670622	331.727
289.2000	-0.779421	331.818
289.1000	-0.892042	331.929
289.0000	-0.947365	332.032
288.9000	-1.00478	332.131
288.8000	-1.01164	332.221
288.7000	-0.975232	332.298
288.6000	-0.902594	332.355
288.5000	-0.905824	332.393
288.4000	-0.851819	332.415
288.3000	-0.756344	332.431
288.2000	-0.70921	332.424
288.1000	-0.633844	332.413
288.0000	-0.632359	332.386
287.9000	-0.624903	332.346
287.8000	-0.65875	332.319
287.7000	-0.707138	332.288
287.6000	-0.801083	332.259
287.5000	-0.863142	332.222
287.4000	-0.887431	332.202
287.3000	-0.953822	332.182
287.2000	-1.014	332.163
287.1000	-1.04389	332.148
287.0000	-1.09621	332.106
286.9000	-1.14274	332.082
286.8000	-1.03474	332.07
286.7000	-0.934844	332.056
286.6000	-0.875309	332.031
286.5000	-0.870062	332.022
286.4000	-0.819716	332.02
286.3000	-0.778726	332.02
286.2000	-0.786037	332.017
286.1000	-0.78005	332.008
286.0000	-0.840592	332.01
285.9000	-0.933495	331.997
285.8000	-0.953163	331.992
285.7000	-0.923039	331.965
285.6000	-0.925937	331.936
285.5000	-0.93897	331.929
285.4000	-0.909631	331.929
285.3000	-0.794938	331.938
285.2000	-0.74764	331.916
285.1000	-0.743091	331.905
285.0000	-0.753071	331.917
284.9000	-0.766436	331.915
284.8000	-0.792095	331.918
284.7000	-0.755983	331.897
284.6000	-0.799882	331.874
284.5000	-0.899849	331.869
284.4000	-0.936656	331.868
284.3000	-0.907765	331.873
284.2000	-0.885734	331.849
284.1000	-0.860995	331.837
284.0000	-0.827549	331.819
283.9000	-0.853033	331.822
283.8000	-0.901597	331.833
283.7000	-0.821909	331.827
283.6000	-0.730492	331.824
283.5000	-0.738733	331.813
283.4000	-0.747647	331.811
283.3000	-0.748061	331.83
283.2000	-0.800337	331.848
283.1000	-0.808181	331.859
283.0000	-0.776861	331.85
282.9000	-0.763942	331.842
282.8000	-0.819087	331.83
282.7000	-0.835181	331.839
282.6000	-0.826926	331.851
282.5000	-0.827779	331.851
282.4000	-0.76814	331.844
282.3000	-0.736365	331.835
282.2000	-0.691494	331.833
282.1000	-0.706388	331.85
282.0000	-0.703509	331.868
281.9000	-0.657242	331.875
281.8000	-0.685068	331.869
281.7000	-0.686907	331.861
281.6000	-0.718366	331.858
281.5000	-0.729773	331.856
281.4000	-0.750518	331.88
281.3000	-0.74524	331.889
281.2000	-0.734848	331.887
281.1000	-0.754654	331.887
281.0000	-0.730316	331.89
280.9000	-0.690187	331.893
280.8000	-0.7102	331.892
280.7000	-0.735149	331.897
280.6000	-0.764339	331.906
280.5000	-0.796299	331.905
280.4000	-0.84268	331.909
280.3000	-0.916184	331.907
280.2000	-0.90541	331.901
280.1000	-0.964728	331.892
280.0000	-0.950627	331.889
279.9000	-0.91209	331.888
279.8000	-0.850839	331.867
279.7000	-0.767631	331.862
279.6000	-0.644306	331.856
279.5000	-0.556437	331.85
279.4000	-0.580185	331.848
279.3000	-0.540283	331.847
279.2000	-0.501097	331.848
279.1000	-0.520589	331.845
279.0000	-0.536764	331.846
278.9000	-0.577929	331.837
278.8000	-0.618493	331.843
278.7000	-0.676577	331.852
278.6000	-0.672568	331.865
278.5000	-0.670391	331.877
278.4000	-0.678165	331.885
278.3000	-0.67343	331.896
278.2000	-0.618156	331.908
278.1000	-0.61126	331.918
278.0000	-0.615672	331.916
277.9000	-0.568797	331.914
277.8000	-0.5001	331.909
277.7000	-0.452079	331.904
277.6000	-0.418579	331.922
277.5000	-0.389616	331.937
277.4000	-0.379712	331.95
277.3000	-0.39756	331.965
277.2000	-0.401125	331.981
277.1000	-0.404599	331.996
277.0000	-0.48901	332.01
276.9000	-0.620602	332.023
276.8000	-0.707045	332.029
276.7000	-0.739347	332.028
276.6000	-0.848814	332.027
276.5000	-0.882881	332.03
276.4000	-0.852682	332.033
276.3000	-0.845887	332.038
276.2000	-0.85913	332.037
276.1000	-0.80342	332.044
276.0000	-0.751331	332.068
275.9000	-0.800256	332.087
275.8000	-0.762834	332.107
275.7000	-0.73403	332.13
275.6000	-0.771243	332.153
275.5000	-0.806922	332.168
275.4000	-0.820067	332.189
275.3000	-0.787768	332.207
275.2000	-0.663317	332.217
275.1000	-0.544592	332.22
275.0000	-0.537548	332.225
274.9000	-0.566103	332.234
274.8000	-0.592891	332.235
274.7000	-0.620945	332.243
274.6000	-0.562653	332.254
274.5000	-0.517362	332.272
274.4000	-0.574075	332.288
274.3000	-0.561938	332.307
274.2000	-0.535183	332.318
274.1000	-0.452937	332.331
274.0000	-0.372377	332.341
273.9000	-0.23763	332.356
273.8000	-0.15921	332.369
273.7000	-0.200657	332.374
273.6000	-0.250698	332.379
273.5000	-0.310565	332.386
273.4000	-0.363148	332.4
273.3000	-0.388618	332.418
273.2000	-0.405783	332.436
273.1000	-0.459211	332.455
273.0000	-0.615634	332.467
272.9000	-0.650979	332.48
272.8000	-0.677477	332.495
272.7000	-0.734044	332.51
272.6000	-0.802457	332.525
272.5000	-0.804597	332.544
272.4000	-0.787607	332.559
272.3000	-0.770932	332.569
272.2000	-0.706715	332.582
272.1000	-0.658704	332.601
272.0000	-0.650413	332.619
271.9000	-0.555602	332.642
271.8000	-0.464402	332.656
271.7000	-0.474634	332.665
271.6000	-0.535909	332.682
271.5000	-0.617252	332.706
271.4000	-0.681529	332.732
271.3000	-0.740152	332.753
271.2000	-0.762114	332.769
271.1000	-0.799197	332.781
271.0000	-0.87936	332.796
270.9000	-0.83126	332.803
270.8000	-0.806837	332.801
270.7000	-0.86332	332.794
270.6000	-0.880071	332.785
270.5000	-0.921355	332.776
270.4000	-0.864848	332.772
270.3000	-0.862336	332.761
270.2000	-0.815489	332.754
270.1000	-0.838373	332.751
270.0000	-0.877492	332.757
269.9000	-0.775828	332.77
269.8000	-0.717187	332.782
269.7000	-0.642526	332.797
269.6000	-0.649163	332.812
269.5000	-0.642738	332.83
269.4000	-0.640225	332.84
269.3000	-0.598256	332.854
269.2000	-0.511422	332.869
269.1000	-0.484163	332.889
269.0000	-0.444389	332.911
268.9000	-0.404292	332.94
268.8000	-0.325002	332.967
268.7000	-0.238645	333.005
268.6000	-0.184106	333.048
268.5000	-0.169853	333.099
268.4000	-0.232087	333.147
268.3000	-0.271036	333.183
268.2000	-0.283339	333.221
268.1000	-0.322106	333.253
268.0000	-0.393303	333.293
267.9000	-0.466633	333.327
267.8000	-0.522295	333.369
267.7000	-0.555642	333.403
267.6000	-0.578973	333.441
267.5000	-0.544544	333.48
267.4000	-0.524344	333.505
267.3000	-0.508309	333.543
267.2000	-0.488516	333.572
267.1000	-0.508349	333.61
267.0000	-0.506525	333.649
266.9000	-0.537445	333.695
266.8000	-0.475049	333.738
266.7000	-0.52199	333.772
266.6000	-0.531005	333.821
266.5000	-0.547334	333.874
266.4000	-0.497464	333.936
266.3000	-0.465657	333.993
266.2000	-0.523493	334.043
266.1000	-0.541476	334.084
266.0000	-0.595668	334.119
265.9000	-0.580361	334.179
265.8000	-0.57692	334.242
265.7000	-0.602388	334.3
265.6000	-0.583718	334.353
265.5000	-0.62137	334.406
265.4000	-0.636128	334.45
265.3000	-0.610573	334.495
265.2000	-0.55565	334.551
265.1000	-0.561994	334.598
265.0000	-0.552103	334.653
264.9000	-0.583966	334.723
264.8000	-0.626111	334.779
264.7000	-0.685808	334.831
264.6000	-0.629376	334.889
264.5000	-0.613328	334.96
264.4000	-0.600043	335.039
264.3000	-0.592398	335.108
264.2000	-0.566944	335.172
264.1000	-0.556194	335.227
264.0000	-0.523576	335.294
263.9000	-0.48992	335.358
263.8000	-0.460567	335.416
263.7000	-0.396545	335.478
263.6000	-0.313791	335.54
263.5000	-0.258643	335.604
263.4000	-0.153031	335.676
263.3000	-0.113243	335.73
263.2000	-0.130746	335.788
263.1000	-0.159516	335.855
263.0000	-0.159917	335.932
262.9000	-0.140993	336
262.8000	-0.236908	336.061
262.7000	-0.266574	336.136
262.6000	-0.328579	336.213
262.5000	-0.371404	336.304
262.4000	-0.370468	336.391
262.3000	-0.326421	336.472
262.2000	-0.261393	336.554
262.1000	-0.305105	336.642
262.0000	-0.320607	336.715
261.9000	-0.319721	336.787
261.8000	-0.337315	336.856
261.7000	-0.334208	336.913
261.6000	-0.342105	336.97
261.5000	-0.328225	337.033
261.4000	-0.343381	337.1
261.3000	-0.354698	337.16
261.2000	-0.355423	337.239
261.1000	-0.315564	337.324
261.0000	-0.258116	337.417
260.9000	-0.24989	337.505
260.8000	-0.257009	337.609
260.7000	-0.29257	337.707
260.6000	-0.274691	337.792
260.5000	-0.291192	337.883
260.4000	-0.298537	337.98
260.3000	-0.30143	338.072
260.2000	-0.345146	338.149
260.1000	-0.288569	338.239
260.0000	-0.341956	338.328
259.9000	-0.350064	338.407
259.8000	-0.357899	338.502
259.7000	-0.325442	338.602
259.6000	-0.290143	338.683
259.5000	-0.300858	338.762
259.4000	-0.298905	338.853
259.3000	-0.337494	338.924
259.2000	-0.297022	338.994
259.1000	-0.177862	339.069
259.0000	-0.14052	339.134
258.9000	-0.160537	339.199
258.8000	-0.194635	339.273
258.7000	-0.198363	339.349
258.6000	-0.208332	339.424
258.5000	-0.206205	339.506
258.4000	-0.190366	339.592
258.3000	-0.247891	339.679
258.2000	-0.189562	339.783
258.1000	-0.151276	339.875
258.0000	-0.0351081	339.97
257.9000	0.0334692	340.065
257.8000	0.102794	340.155
257.7000	0.101266	340.251
257.6000	0.0681807	340.357
257.5000	0.0148973	340.453
257.4000	-0.0741894	340.548
257.3000	-0.198654	340.636
257.2000	-0.360703	340.724
257.1000	-0.487733	340.82
257.0000	-0.567677	340.919
256.9000	-0.64018	341.013
256.8000	-0.714127	341.088
256.7000	-0.72123	341.178
256.6000	-0.712711	341.273
256.5000	-0.661998	341.359
256.4000	-0.594893	341.454
256.3000	-0.528134	341.543
256.2000	-0.506996	341.63
256.1000	-0.433234	341.721
256.0000	-0.316893	341.805
255.9000	-0.198843	341.89
255.8000	-0.146455	341.949
255.7000	-0.0569822	342.028
255.6000	0.0118454	342.105
255.5000	0.0167519	342.173
255.4000	-0.0319346	342.243
255.3000	-0.0268664	342.311
255.2000	-0.0290664	342.397
255.1000	-0.0218172	342.482
255.0000	-0.0113525	342.578
254.9000	-0.037402	342.661
254.8000	-0.114533	342.746
254.7000	-0.151245	342.844
254.6000	-0.108554	342.937
254.5000	-0.190223	343.028
254.4000	-0.313126	343.103
254.3000	-0.375672	343.18
254.2000	-0.491788	343.249
254.1000	-0.564832	343.338
254.0000	-0.598007	343.432
253.9000	-0.543255	343.53
253.8000	-0.528024	343.618
253.7000	-0.421492	343.71
253.6000	-0.387763	343.8
253.5000	-0.373345	343.896
253.4000	-0.391211	343.99
253.3000	-0.359915	344.094
253.2000	-0.372177	344.186
253.1000	-0.406064	344.278
253.0000	-0.41605	344.363
252.9000	-0.472528	344.445
252.8000	-0.492837	344.526
252.7000	-0.545545	344.611
252.6000	-0.512514	344.699
252.5000	-0.469995	344.788
252.4000	-0.418614	344.866
252.3000	-0.366774	344.946
252.2000	-0.341048	345.017
252.1000	-0.293753	345.099
252.0000	-0.242601	345.184
251.9000	-0.188775	345.261
251.8000	-0.107594	345.347
251.7000	-0.0851567	345.416
251.6000	-0.123574	345.49
251.5000	-0.193054	345.556
251.4000	-0.26556	345.638
251.3000	-0.388413	345.725
251.2000	-0.399174	345.815
251.1000	-0.353369	345.92
251.0000	-0.374773	346.024
250.9000	-0.324796	346.137
250.8000	-0.293923	346.234
250.7000	-0.329552	346.341
250.6000	-0.33706	346.443
250.5000	-0.284512	346.537
250.4000	-0.292011	346.63
250.3000	-0.30351	346.713
250.2000	-0.297916	346.796
250.1000	-0.395445	346.866
250.0000	-0.344929	346.946
249.9000	-0.230146	347.037
249.8000	-0.163718	347.126
249.7000	-0.0959557	347.232
249.6000	-0.0262767	347.338
249.5000	0.017676	347.449
249.4000	-0.0207525	347.567
249.3000	-0.0187452	347.681
249.2000	-0.089503	347.787
249.1000	-0.181985	347.889
249.0000	-0.230619	347.978
248.9000	-0.295566	348.058
248.8000	-0.269006	348.153
248.7000	-0.303421	348.246
248.6000	-0.222523	348.329
248.5000	-0.199217	348.411
248.4000	-0.194011	348.492
248.3000	-0.147187	348.574
248.2000	-0.145541	348.672
248.1000	-0.177712	348.777
248.0000	-0.191453	348.865
247.9000	-0.195132	348.95
247.8000	-0.220471	349.031
247.7000	-0.295417	349.105
247.6000	-0.281138	349.193
247.5000	-0.275064	349.287
247.4000	-0.241195	349.377
247.3000	-0.153816	349.448
247.2000	-0.190568	349.519
247.1000	-0.249777	349.591
247.0000	-0.225929	349.665
246.9000	-0.228762	349.755
246.8000	-0.232142	349.844
246.7000	-0.256052	349.927
246.6000	-0.311502	350.01
246.5000	-0.366456	350.1
246.4000	-0.411006	350.185
246.3000	-0.446587	350.272
246.2000	-0.513767	350.359
246.1000	-0.627388	350.441
246.0000	-0.623621	350.527
245.9000	-0.620115	350.616
245.8000	-0.585859	350.705
245.7000	-0.509081	350.808
245.6000	-0.403992	350.923
245.5000	-0.279748	351.034
245.4000	-0.170372	351.137
245.3000	-0.0439087	351.242
245.2000	0.10555	351.358
245.1000	0.187753	351.468
245.0000	0.105744	351.566
244.9000	0.0503917	351.657
244.8000	-0.00737886	351.751
244.7000	-0.0202621	351.862
244.6000	-0.11524	351.972
244.5000	-0.169143	352.081
244.4000	-0.301736	352.174
244.3000	-0.355722	352.267
244.2000	-0.370814	352.366
244.1000	-0.36869	352.476
244.0000	-0.359423	352.581
243.9000	-0.352902	352.676
243.8000	-0.284149	352.771
243.7000	-0.245747	352.869
243.6000	-0.18695	352.972
243.5000	-0.239109	353.074
243.4000	-0.178735	353.193
243.3000	-0.0608234	353.305
243.2000	-0.0493811	353.409
243.1000	-0.0583947	353.511
243.0000	-0.122106	353.61
242.9000	-0.187211	353.712
242.8000	-0.182849	353.817
242.7000	-0.198458	353.928
242.6000	-0.239249	354.034
242.5000	-0.391739	354.137
242.4000	-0.482705	354.25
242.3000	-0.454936	354.369
242.2000	-0.449819	354.491
242.1000	-0.3682	354.615
242.0000	-0.381292	354.734
241.9000	-0.330539	354.855
241.8000	-0.286912	354.972
241.7000	-0.296016	355.085
241.6000	-0.26909	355.195
241.5000	-0.288915	355.308
241.4000	-0.375736	355.422
241.3000	-0.469427	355.539
241.2000	-0.504802	355.662
241.1000	-0.526184	355.79
241.0000	-0.549257	355.913
240.9000	-0.53645	356.038
240.8000	-0.479378	356.166
240.7000	-0.418651	356.294
240.6000	-0.346851	356.425
240.5000	-0.395463	356.553
240.4000	-0.400378	356.683
240.3000	-0.482492	356.807
240.2000	-0.552572	356.929
240.1000	-0.548096	357.058
240.0000	-0.551225	357.184
239.9000	-0.65917	357.314
239.8000	-0.764904	357.443
239.7000	-0.728574	357.577
239.6000	-0.72625	357.712
239.5000	-0.772967	357.854
239.4000	-0.74046	358.009
239.3000	-0.770705	358.17
239.2000	-0.83012	358.338
239.1000	-0.872965	358.509
239.0000	-0.859027	358.676
238.9000	-0.835349	358.841
238.8000	-0.830848	359.005
238.7000	-0.662391	359.172
238.6000	-0.568897	359.321
238.5000	-0.533502	359.464
238.4000	-0.481713	359.604
238.3000	-0.400198	359.748
238.2000	-0.337368	359.892
238.1000	-0.298817	360.037
238.0000	-0.251544	360.188
237.9000	-0.339003	360.334
237.8000	-0.446289	360.486
237.7000	-0.473565	360.649
237.6000	-0.502624	360.818
237.5000	-0.592039	360.991
237.4000	-0.639916	361.171
237.3000	-0.611168	361.355
237.2000	-0.594057	361.537
237.1000	-0.513541	361.713
237.0000	-0.433995	361.888
236.9000	-0.465536	362.057
236.8000	-0.497542	362.225
236.7000	-0.464448	362.393
236.6000	-0.392726	362.55
236.5000	-0.411502	362.706
236.4000	-0.50858	362.866
236.3000	-0.571958	363.039
236.2000	-0.654705	363.216
236.1000	-0.685748	363.386
236.0000	-0.654889	363.557
235.9000	-0.668002	363.724
235.8000	-0.662221	363.892
235.7000	-0.661959	364.055
235.6000	-0.6687	364.22
235.5000	-0.746845	364.381
235.4000	-0.727644	364.552
235.3000	-0.740425	364.722
235.2000	-0.773773	364.893
235.1000	-0.805473	365.066
235.0000	-0.867378	365.24
234.9000	-0.929538	365.416
234.8000	-0.834654	365.601
234.7000	-0.760302	365.791
234.6000	-0.769112	365.968
234.5000	-0.764578	366.149
234.4000	-0.710846	366.336
234.3000	-0.619149	366.524
234.2000	-0.489129	366.715
234.1000	-0.360413	366.909
234.0000	-0.371257	367.097
233.9000	-0.446104	367.278
233.8000	-0.495814	367.459
233.7000	-0.495483	367.643
233.6000	-0.536369	367.836
233.5000	-0.640359	368.032
233.4000	-0.798379	368.218
233.3000	-1.04591	368.401
233.2000	-1.12504	368.595
233.1000	-1.08593	368.79
233.0000	-1.00532	368.993
232.9000	-0.935238	369.193
232.8000	-0.935173	369.392
232.7000	-0.900633	369.595
232.6000	-0.886519	369.802
232.5000	-0.800246	370.014
232.4000	-0.734739	370.22
232.3000	-0.799298	370.428
232.2000	-0.858222	370.632
232.1000	-0.977555	370.84
232.0000	-1.0656	371.041
231.9000	-1.19224	371.238
231.8000	-1.28359	371.431
231.7000	-1.38437	371.627
231.6000	-1.46728	371.828
231.5000	-1.48735	372.022
231.4000	-1.48394	372.224
231.3000	-1.59349	372.418
231.2000	-1.55588	372.625
231.1000	-1.42836	372.832
231.0000	-1.35661	373.035
230.9000	-1.37546	373.241
230.8000	-1.27073	373.447
230.7000	-1.18012	373.662
230.6000	-1.20421	373.872
230.5000	-1.06219	374.095
230.4000	-1.00304	374.313
230.3000	-1.05903	374.53
230.2000	-1.04737	374.75
230.1000	-0.977556	374.974
230.0000	-0.911396	375.199
229.9000	-1.05399	375.408
229.8000	-1.20639	375.616
229.7000	-1.37206	375.808
229.6000	-1.43062	375.999
229.5000	-1.56743	376.183
229.4000	-1.78343	376.36
229.3000	-1.92634	376.54
229.2000	-2.10193	376.712
229.1000	-2.18537	376.883
229.0000	-2.13579	377.066
228.9000	-2.11589	377.252
228.8000	-2.06582	377.445
228.7000	-2.04618	377.649
228.6000	-1.91919	377.865
228.5000	-1.9035	378.08
228.4000	-1.7918	378.316
228.3000	-1.69975	378.561
228.2000	-1.67496	378.801
228.1000	-1.60061	379.053
228.0000	-1.63082	379.302
227.9000	-1.79011	379.539
227.8000	-1.9121	379.771
227.7000	-1.90269	380.017
227.6000	-1.86219	380.257
227.5000	-1.8376	380.489
227.4000	-1.80891	380.725
227.3000	-1.85293	380.96
227.2000	-1.84701	381.191
227.1000	-1.66436	381.426
227.0000	-1.59199	381.659
226.9000	-1.52668	381.886
226.8000	-1.54003	382.111
226.7000	-1.68227	382.332
226.6000	-1.72212	382.552
226.5000	-1.64196	382.769
226.4000	-1.60543	382.981
226.3000	-1.64934	383.191
226.2000	-1.59885	383.415
226.1000	-1.63184	383.632
226.0000	-1.60195	383.848
225.9000	-1.42427	384.065
225.8000	-1.29628	384.283
225.7000	-1.3824	384.497
225.6000	-1.41647	384.717
225.5000	-1.3983	384.941
225.4000	-1.35124	385.161
225.3000	-1.32786	385.387
225.2000	-1.31209	385.61
225.1000	-1.33708	385.833
225.0000	-1.38646	386.058
224.9000	-1.3032	386.288
224.8000	-1.36654	386.512
224.7000	-1.39676	386.734
224.6000	-1.48671	386.955
224.5000	-1.49197	387.173
224.4000	-1.43688	387.391
224.3000	-1.34995	387.615
224.2000	-1.37783	387.833
224.1000	-1.43541	388.055
224.0000	-1.37444	388.279
223.9000	-1.40351	388.501
223.8000	-1.33706	388.727
223.7000	-1.272	388.958
223.6000	-1.30816	389.187
223.5000	-1.3552	389.414
223.4000	-1.4102	389.637
223.3000	-1.52632	389.849
223.2000	-1.62919	390.064
223.1000	-1.55549	390.288
223.0000	-1.60104	390.508
222.9000	-1.61717	390.729
222.8000	-1.63571	390.948
222.7000	-1.63722	391.171
222.6000	-1.58323	391.395
222.5000	-1.55283	391.626
222.4000	-1.44143	391.851
222.3000	-1.44621	392.072
222.2000	-1.48018	392.291
222.1000	-1.46633	392.513
222.0000	-1.48454	392.733
221.9000	-1.54399	392.944
221.8000	-1.65812	393.155
221.7000	-1.73055	393.366
221.6000	-1.76981	393.583
221.5000	-1.78107	393.807
221.4000	-1.84108	394.023
221.3000	-1.75134	394.244
221.2000	-1.66812	394.467
221.1000	-1.63107	394.692
221.0000	-1.68421	394.912
220.9000	-1.64273	395.133
220.8000	-1.59025	395.359
220.7000	-1.65501	395.572
220.6000	-1.65959	395.792
220.5000	-1.65977	396.018
220.4000	-1.71345	396.231
220.3000	-1.73861	396.451
220.2000	-1.66821	396.679
220.1000	-1.61814	396.907
220.0000	-1.63959	397.131
219.9000	-1.70772	397.359
219.8000	-1.63452	397.591
219.7000	-1.62071	397.82
219.6000	-1.71087	398.041
219.5000	-1.79745	398.266
219.4000	-1.94932	398.489
219.3000	-2.09617	398.706
219.2000	-2.32863	398.923
219.1000	-2.27445	399.147
219.0000	-2.24487	399.372
218.9000	-2.37873	399.589
218.8000	-2.30709	399.817
218.7000	-2.20351	400.044
218.6000	-2.09095	400.27
218.5000	-1.97231	400.495
218.4000	-1.69973	400.729
218.3000	-1.57268	400.953
218.2000	-1.54609	401.175
218.1000	-1.54984	401.396
218.0000	-1.52875	401.625
217.9000	-1.66134	401.847
217.8000	-1.88231	402.061
217.7000	-1.84293	402.288
217.6000	-1.95504	402.505
217.5000	-2.05995	402.733
217.4000	-2.09952	402.959
217.3000	-2.0076	403.189
217.2000	-1.98137	403.417
217.1000	-1.95731	403.642
217.0000	-1.74885	403.872
216.9000	-1.71879	404.1
216.8000	-1.58591	404.334
216.7000	-1.42559	404.56
216.6000	-1.33866	404.789
216.5000	-1.40737	405.011
216.4000	-1.45718	405.227
216.3000	-1.40599	405.445
216.2000	-1.39286	405.672
216.1000	-1.26977	405.903
216.0000	-1.25316	406.126
215.9000	-1.40557	406.344
215.8000	-1.62627	406.558
215.7000	-1.66874	406.784
215.6000	-1.6445	407.019
215.5000	-1.63037	407.253
215.4000	-1.75398	407.481
215.3000	-1.9332	407.703
215.2000	-2.03753	407.93
215.1000	-1.98596	408.174
215.0000	-1.82223	408.421
214.9000	-1.72322	408.668
214.8000	-1.72815	408.906
214.7000	-1.78837	409.146
214.6000	-1.68005	409.394
214.5000	-1.50743	409.645
214.4000	-1.45752	409.893
214.3000	-1.59476	410.132
214.2000	-1.6828	410.372
214.1000	-1.65729	410.615
214.0000	-1.64942	410.86
213.9000	-1.59682	411.107
213.8000	-1.4789	411.355
213.7000	-1.44014	411.603
213.6000	-1.3947	411.854
213.5000	-1.3151	412.109
213.4000	-1.1404	412.367
213.3000	-1.12119	412.625
213.2000	-1.25932	412.88
213.1000	-1.19603	413.146
213.0000	-1.31962	413.407
212.9000	-1.53044	413.668
212.8000	-1.61366	413.93
212.7000	-1.74574	414.19
212.6000	-1.80622	414.455
212.5000	-1.87244	414.718
212.4000	-1.67097	414.992
212.3000	-1.60384	415.259
212.2000	-1.56681	415.524
212.1000	-1.55764	415.792
212.0000	-1.54445	416.068
211.9000	-1.43216	416.352
211.8000	-1.4209	416.627
211.7000	-1.47682	416.905
211.6000	-1.59057	417.181
211.5000	-1.77025	417.454
211.4000	-1.90567	417.735
211.3000	-1.91299	418.02
211.2000	-1.84679	418.301
211.1000	-1.81291	418.583
211.0000	-1.91218	418.866
210.9000	-1.93176	419.153
210.8000	-1.86712	419.441
210.7000	-1.74809	419.741
210.6000	-1.69614	420.037
210.5000	-1.64033	420.339
210.4000	-1.65147	420.643
210.3000	-1.83554	420.948
210.2000	-1.97031	421.25
210.1000	-2.00875	421.56
210.0000	-2.21474	421.866
209.9000	-2.29578	422.175
209.8000	-2.4189	422.479
209.7000	-2.47073	422.789
209.6000	-2.47382	423.096
209.5000	-2.39409	423.409
209.4000	-2.19599	423.725
209.3000	-2.32779	424.03
209.2000	-2.15932	424.348
209.1000	-2.13052	424.663
209.0000	-2.07316	424.98
208.9000	-1.97334	425.301
208.8000	-2.02726	425.616
208.7000	-2.02774	425.932
208.6000	-1.8759	426.264
208.5000	-1.61828	426.599
208.4000	-1.49776	426.929
208.3000	-1.39717	427.263
208.2000	-1.19499	427.603
208.1000	-1.24356	427.937
208.0000	-1.14607	428.276
207.9000	-1.11235	428.618
207.8000	-1.12712	428.956
207.7000	-1.2225	429.291
207.6000	-1.26788	429.631
207.5000	-1.23526	429.971
207.4000	-1.39945	430.304
207.3000	-1.55219	430.634
207.2000	-1.65797	430.967
207.1000	-1.62128	431.303
207.0000	-1.55917	431.642
206.9000	-1.53322	431.981
206.8000	-1.56772	432.316
206.7000	-1.53504	432.654
206.6000	-1.56518	432.991
206.5000	-1.41414	433.336
206.4000	-1.26991	433.683
206.3000	-1.16537	434.031
206.2000	-1.18018	434.371
206.1000	-1.21532	434.706
206.0000	-1.28989	435.042
205.9000	-1.37497	435.377
205.8000	-1.29669	435.72
205.7000	-1.2819	436.064
205.6000	-1.50365	436.402
205.5000	-1.7619	436.739
205.4000	-1.91728	437.078
205.3000	-1.96384	437.429
205.2000	-1.93261	437.786
205.1000	-1.89886	438.145
205.0000	-1.85393	438.505
204.9000	-1.77657	438.868
204.8000	-1.55476	439.24
204.7000	-1.34577	439.615
204.6000	-1.06209	439.996
204.5000	-1.02572	440.372
204.4000	-0.973046	440.748
204.3000	-0.801163	441.133
204.2000	-0.88105	441.511
204.1000	-0.955305	441.892
204.0000	-1.11276	442.272
203.9000	-1.24296	442.654
203.8000	-1.31861	443.043
203.7000	-1.14936	443.439
203.6000	-0.92976	443.843
203.5000	-0.826451	444.245
203.4000	-0.588504	444.656
203.3000	-0.512118	445.066
203.2000	-0.531034	445.476
203.1000	-0.323181	445.897
203.0000	-0.304546	446.315
202.9000	-0.312986	446.738
202.8000	-0.451278	447.153
202.7000	-0.475886	447.579
202.6000	-0.419741	448.008
202.5000	-0.286209	448.441
202.4000	0.0810358	448.88
202.3000	0.295474	449.317
202.2000	0.319081	449.751
202.1000	0.332734	450.187
202.0000	0.489701	450.635
201.9000	0.704638	451.091
201.8000	0.52578	451.539
201.7000	0.0735476	451.987
201.6000	-0.264197	452.446
201.5000	-0.369688	452.918
201.4000	-0.202919	453.404
201.3000	-0.0477211	453.9
201.2000	0.0498632	454.398
201.1000	0.0150622	454.897
201.0000	0.260918	455.408
200.9000	0.652628	455.926
200.8000	0.972724	456.45
200.7000	0.872299	456.97
200.6000	0.789074	457.499
200.5000	0.801471	458.04
200.4000	0.590187	458.586
200.3000	0.390201	459.142
200.2000	0.127759	459.703
200.1000	0.0480106	460.274
200.0000	0.162004	460.854
199.9000	0.284548	461.436
199.8000	0.169559	462.007
199.7000	0.242963	462.576
199.6000	0.365434	463.146
199.5000	0.570347	463.717
199.4000	0.744641	464.288
199.3000	0.804611	464.859
199.2000	0.614418	465.433
199.1000	0.511462	466.018
199.0000	0.699302	466.625
198.9000	1.05912	467.253
198.8000	1.2248	467.888
198.7000	1.45799	468.547
198.6000	1.79677	469.227
198.5000	2.17095	469.929
198.4000	2.55749	470.645
198.3000	2.87959	471.374
198.2000	3.0969	472.128
198.1000	2.94327	472.893
198.0000	2.59446	473.687
197.9000	2.27409	474.501
197.8000	2.08001	475.337
197.7000	1.87059	476.191
197.6000	1.72516	477.06
197.5000	1.63041	477.94
197.4000	1.80156	478.822
197.3000	1.94851	479.69
197.2000	2.13864	480.53
197.1000	2.55879	481.344
197.0000	2.92731	482.142
196.9000	3.2207	482.926
196.8000	3.1763	483.696
196.7000	3.18465	484.486
196.6000	3.03544	485.293
196.5000	2.95703	486.139
196.4000	2.96211	487.043
196.3000	2.92676	488.002
196.2000	2.86693	489.018
196.1000	2.61763	490.093
196.0000	2.57495	491.248
195.9000	2.53472	492.483
195.8000	2.34641	493.817
195.7000	1.96095	495.257
195.6000	1.88061	496.817
195.5000	2.0197	498.507
195.4000	2.09336	500.287
195.3000	2.22382	502.127
195.2000	2.45973	503.992
195.1000	2.5434	505.849
195.0000	2.63002	507.623
194.9000	3.23483	509.275
194.8000	3.65944	510.753
194.7000	3.70856	512.041
194.6000	3.47844	513.181
194.5000	3.50532	514.229
194.4000	3.52287	515.224
194.3000	3.91596	516.202
194.2000	4.00401	517.219
194.1000	3.86188	518.352
194.0000	3.6931	519.661
193.9000	3.6167	521.186
193.8000	3.88903	522.958
193.7000	3.81853	524.987
193.6000	3.60465	527.293
193.5000	3.3028	529.927
193.4000	3.27309	532.934
193.3000	3.30444	536.314
193.2000	3.63401	540.031
193.1000	4.01958	544.013
193.0000	4.3794	548.16
192.9000	4.29114	552.317
192.8000	4.33299	556.387
192.7000	4.75641	560.192
192.6000	5.5142	563.528
192.5000	5.9202	566.264
192.4000	6.00799	568.423
192.3000	6.19001	570.098
192.2000	5.79914	571.362
192.1000	5.94637	572.381
192.0000	6.14334	573.276
191.9000	6.12298	574.227
191.8000	5.27859	575.467
191.7000	4.95805	577.23
191.6000	4.93545	579.576
191.5000	4.63551	582.498
191.4000	4.52774	586.01
191.3000	4.44348	590.171
191.2000	4.6115	595.016
191.1000	5.10012	600.532
191.0000	5.40732	606.6
190.9000	5.52784	613.085
190.8000	5.59743	619.847
190.7000	5.65123	626.714
190.6000	5.47696	633.505
190.5000	5.66818	639.959
190.4000	5.89781	645.764
190.3000	6.32057	650.735
190.2000	5.65211	654.827
190.1000	5.46298	658.167
190.0000	6.02421	660.915

##### Extended Information
[Comments]
Sample name	ACE2
Comment
User
Division
Company	CSIR-IMTECH

[Detailed Information]
Creation date	4/9/2024 1:48 PM

Data array type	Linear data array * 2
Horizontal axis	Wavelength [nm]
Vertical axis(1)	CD [mdeg]
Vertical axis(2)	HT [V]
Start	350 nm
End	190 nm
Data interval	0.1 nm
Data points	1601    

[Measurement Information]
Instrument Name	JASCO CD
Model Name	J-815
Serial No.	B063061168

Accessory	PTC-423S
Accessory S/N	C013945-01
  Temperature	37.91 C
  Control Sonsor	Cell
  Monitor Sensor	Cell
  Start Mode	Start immediately
  Cell Length	10 mm

Measurement date	4/9/2024 1:48 PM

Photometric Mode	CD, HT
Measure Range	350 - 190 nm
Data pitch	0.1 nm
Sensitivity	Standard
D.I.T.	1 sec
Bandwidth	1.00 nm
Start Mode	Immediately
Scanning Speed	50 nm/min
Baseline Correction	None
Shutter Control	Auto
CD Detector	PMT
PMT Voltage	Auto
Accumulations	3
Concentration	0.27 umol/L

